t_wall_s,t_boot_us,ax,ay,az,gx,gy,gz,mx,my,mz,abs_pressure,temperature,source
2.252868,67307241254,-0.033724,-0.330746,-9.762775,0.000152,-0.004842,0.000052,0.688671,0.568302,3.603679,782.09,41.70,highres
2.252868,67307257287,-0.097127,-0.333526,-9.758567,-0.000190,-0.003620,0.001392,0.688671,0.568302,3.603679,782.09,41.70,highres
2.252868,67307280861,-0.120553,-0.345497,-9.759185,-0.002315,0.000537,-0.001357,0.688671,0.568302,3.603679,782.09,41.70,highres
2.252868,67307300296,-0.074664,-0.343433,-9.743876,-0.001412,0.004317,0.000086,0.688671,0.568302,3.603679,782.09,41.70,highres
2.252868,67307324618,-0.061307,-0.326807,-9.764705,-0.002634,0.006362,-0.001051,0.688671,0.568302,3.603679,782.09,41.70,highres
2.252868,67307341938,-0.039619,-0.314373,-9.771128,-0.001031,0.003841,-0.000708,0.688671,0.568302,3.603679,782.09,41.70,highres
2.252868,67307359516,-0.027905,-0.305842,-9.766234,-0.000476,0.006085,-0.001194,0.688671,0.568302,3.603679,782.09,41.70,highres
2.253118,67307376167,-0.021544,-0.316228,-9.775257,0.002757,0.005056,-0.001601,0.697903,0.570687,3.581398,782.09,41.70,highres
2.253118,67307398016,-0.010889,-0.300009,-9.802250,0.004086,0.003193,-0.000746,0.697903,0.570687,3.581398,782.09,41.70,highres
2.253118,67307417672,-0.005632,-0.332276,-9.782734,0.004036,-0.000345,0.000426,0.697903,0.570687,3.581398,782.10,41.70,highres
2.253118,67307440315,-0.005079,-0.364036,-9.768326,0.004086,-0.001007,0.000323,0.697903,0.570687,3.581398,782.10,41.70,highres
2.253118,67307460186,-0.034353,-0.380598,-9.748167,0.002596,-0.002297,0.001018,0.697903,0.570687,3.581398,782.10,41.70,highres
2.253118,67307475709,-0.031698,-0.368662,-9.773322,0.001007,-0.003945,-0.001042,0.697903,0.570687,3.581398,782.10,41.70,highres
2.253118,67307498275,-0.037843,-0.359639,-9.747789,-0.002632,-0.004130,0.000180,0.697903,0.570687,3.581398,782.10,41.70,highres
2.253118,67307513020,-0.050329,-0.353806,-9.752912,-0.002937,-0.006102,-0.000549,0.667956,0.554106,3.624364,782.10,41.70,highres
2.253118,67307536305,-0.058708,-0.333456,-9.770867,-0.004036,-0.003032,0.000491,0.667956,0.554106,3.624364,782.10,41.70,highres
2.253198,67307557723,-0.070678,-0.319091,-9.756503,-0.001715,-0.000465,-0.000126,0.667956,0.554106,3.624364,782.10,41.70,highres
2.253198,67307582597,-0.052260,-0.325539,-9.772082,-0.000799,0.002446,0.000647,0.667956,0.554106,3.624364,782.09,41.70,highres
2.253198,67307596417,-0.059106,-0.315678,-9.759428,-0.001590,0.003506,-0.000431,0.667956,0.554106,3.624364,782.09,41.70,highres
2.253198,67307618434,-0.056038,-0.325077,-9.777774,-0.000494,0.005338,0.000485,0.667956,0.554106,3.624364,782.09,41.70,highres
2.253198,67307635751,-0.006279,-0.325559,-9.804144,-0.000799,0.003566,-0.001042,0.667956,0.554106,3.624364,782.09,41.70,highres
2.253198,67307657906,-0.059905,-0.338244,-9.677497,-0.001105,0.005033,-0.000431,0.674547,0.564314,3.602849,782.09,41.70,highres
2.253198,67307680880,-0.088634,-0.351545,-9.758100,0.000165,0.005271,0.000485,0.674547,0.564314,3.602849,782.09,41.70,highres
2.253198,67307698680,-0.072029,-0.344457,-9.784357,-0.001798,0.008781,-0.000935,0.674547,0.564314,3.602849,782.09,41.70,highres
2.253265,67307717826,0.097046,-0.363443,-9.784835,-0.004159,0.005644,-0.000431,0.674547,0.564314,3.602849,782.09,41.70,highres
2.253265,67307741096,0.087055,-0.324445,-9.809806,-0.006961,-0.007292,-0.001221,0.674547,0.564314,3.602849,782.09,41.70,highres
2.253265,67307757881,-0.050329,-0.317894,-9.767277,-0.005075,-0.011460,0.000180,0.674547,0.564314,3.602849,782.09,41.70,highres
2.253265,67307778606,-0.209536,-0.316697,-9.740941,-0.002937,-0.004130,0.001707,0.674547,0.564314,3.602849,782.09,41.70,highres
2.253265,67307800540,-0.120653,-0.316773,-9.766798,-0.002172,0.005033,-0.001502,0.676120,0.566115,3.593069,782.09,41.70,highres
2.253265,67307818354,0.083564,-0.361812,-9.788862,-0.002937,0.002501,0.000288,0.676120,0.566115,3.593069,782.09,41.70,highres
2.253265,67307844152,0.034663,-0.330549,-9.778048,-0.007390,-0.010524,0.001835,0.676120,0.566115,3.593069,782.09,41.70,highres
2.253265,67307861352,-0.101300,-0.332306,-9.776269,-0.006124,-0.011460,0.000658,0.676120,0.566115,3.593069,782.09,41.70,highres
2.253265,67307880803,-0.122152,-0.304727,-9.726575,-0.008130,-0.006268,0.000180,0.676120,0.566115,3.593069,782.09,41.70,highres
2.253337,67307902715,-0.069029,-0.342105,-9.954187,-0.010573,-0.001849,0.000838,0.676120,0.566115,3.593069,782.09,41.70,highres
2.253337,67307918818,0.023148,-0.383086,-9.751448,-0.010689,-0.002114,0.000766,0.676120,0.566115,3.593069,782.09,41.70,highres
2.253337,67307940785,-0.001854,-0.369036,-9.738640,-0.016987,-0.010390,0.000104,0.679894,0.573923,3.626184,782.09,41.70,highres
2.253337,67307961019,-0.013220,-0.355003,-9.730166,-0.018514,-0.010544,-0.000431,0.679894,0.573923,3.626184,782.09,41.70,highres
2.253337,67307980545,-0.048899,-0.322298,-9.794486,-0.019959,-0.011714,-0.000208,0.679894,0.573923,3.626184,782.09,41.70,highres
2.253337,67308000874,0.185178,-0.269399,-9.782683,-0.018624,-0.018385,-0.004096,0.679894,0.573923,3.626184,782.09,41.70,highres
2.253337,67308016269,0.131646,-0.321717,-9.781154,-0.016376,-0.032730,-0.001311,0.679894,0.573923,3.626184,782.09,41.70,highres
2.253337,67308034473,-0.155669,-0.225722,-9.790019,-0.012863,-0.034222,0.002630,0.679894,0.573923,3.626184,782.09,41.70,highres
2.253463,67308053724,-0.210733,-0.256845,-9.738546,-0.008738,-0.026424,-0.002568,0.679894,0.573923,3.626184,782.09,41.70,highres
2.253463,67308078279,-0.173625,-0.204175,-9.776852,0.000546,-0.014085,0.001154,0.685472,0.564790,3.615277,782.09,41.70,highres
2.253463,67308093346,-0.089524,-0.234858,-9.813365,0.003682,-0.010104,-0.001077,0.685472,0.564790,3.615277,782.09,41.70,highres
2.253463,67308111680,-0.023316,-0.278392,-9.775994,0.006460,-0.008155,-0.000431,0.685472,0.564790,3.615277,782.09,41.70,highres
2.253463,67308128003,-0.096111,-0.281696,-9.767242,0.009533,-0.011133,0.000232,0.685472,0.564790,3.615277,782.08,41.70,highres
2.253463,67308149039,-0.182984,-0.331648,-9.746975,0.010502,-0.007964,-0.000736,0.685472,0.564790,3.615277,782.08,41.70,highres
2.253463,67308165830,-0.282233,-0.349664,-9.680119,0.008438,-0.001193,0.001275,0.685472,0.564790,3.615277,782.08,41.70,highres
2.253463,67308192061,-0.186237,-0.373933,-9.715162,0.003257,0.015332,-0.000126,0.685472,0.564790,3.615277,782.08,41.70,highres
2.253527,67308206348,-0.062476,-0.363954,-9.749910,-0.000188,0.022137,-0.000431,0.659768,0.574518,3.613838,782.09,41.70,highres
2.253527,67308223549,0.047829,-0.344230,-9.762487,-0.003243,0.022443,-0.001653,0.659768,0.574518,3.613838,782.09,41.70,highres
2.253527,67308257310,0.080208,-0.330457,-9.789962,-0.009584,0.009180,-0.000009,0.659768,0.574518,3.613838,782.09,41.70,highres
2.253527,67308278256,0.031709,-0.285197,-9.789642,-0.009772,-0.000432,-0.001422,0.659768,0.574518,3.613838,782.09,41.70,highres
2.253527,67308298101,-0.043557,-0.284370,-9.778447,-0.007291,-0.004663,0.000485,0.659768,0.574518,3.613838,782.08,41.70,highres
2.253527,67308316221,-0.094018,-0.261648,-9.781030,-0.003245,-0.004738,0.000789,0.659768,0.574518,3.613838,782.08,41.70,highres
2.253527,67308338604,-0.054021,-0.252381,-9.798591,-0.000101,-0.004793,-0.001208,0.659768,0.574518,3.613838,782.08,41.70,highres
2.253527,67308356725,-0.001215,-0.247199,-9.798416,0.002866,-0.008101,0.000485,0.667213,0.543080,3.608130,782.08,41.70,highres
2.253527,67308370770,0.006128,-0.273604,-9.795699,0.006313,-0.011853,0.000398,0.667213,0.543080,3.608130,782.08,41.70,highres
2.253527,67308395158,-0.074092,-0.310623,-9.767896,0.008975,-0.015126,0.000485,0.667213,0.543080,3.608130,782.08,41.70,highres
2.253592,67308411000,-0.162515,-0.316168,-9.752494,0.007660,-0.014089,0.000458,0.667213,0.543080,3.608130,782.08,41.70,highres
2.253592,67308434241,-0.214324,-0.345800,-9.734581,0.006226,-0.007346,0.001123,0.667213,0.543080,3.608130,782.08,41.70,highres
2.253592,67308461185,-0.190749,-0.348519,-9.730377,0.003145,0.000355,0.000273,0.667213,0.543080,3.608130,782.08,41.70,highres
2.253592,67308479425,-0.106762,-0.346488,-9.745044,-0.001336,0.009572,0.000189,0.667213,0.543080,3.608130,782.08,41.70,highres
2.253592,67308500818,-0.044394,-0.342336,-9.765590,-0.005980,0.008840,-0.000484,0.664173,0.542807,3.616634,782.08,41.70,highres
2.253592,67308520729,-0.039321,-0.323247,-9.762909,-0.006845,0.005307,0.000316,0.664173,0.542807,3.616634,782.08,41.70,highres
2.253592,67308538159,-0.073714,-0.293815,-9.776358,-0.007759,0.006187,-0.000188,0.664173,0.542807,3.616634,782.08,41.70,highres
2.253592,67308558488,-0.082821,-0.275862,-9.768986,-0.006591,0.005970,-0.000117,0.664173,0.542807,3.616634,782.08,41.70,highres
2.253671,67308581885,-0.062284,-0.269121,-9.787194,-0.001656,0.006275,-0.000454,0.664173,0.542807,3.616634,782.08,41.70,highres
2.253671,67308601123,-0.006654,-0.270828,-9.788630,0.001103,0.001506,-0.000606,0.664173,0.542807,3.616634,782.08,41.70,highres
2.253671,67308621930,0.024913,-0.269877,-9.802437,0.003938,-0.003515,0.000062,0.664173,0.542807,3.616634,782.08,41.70,highres
2.253671,67308642100,0.010067,-0.271938,-9.776982,0.004905,-0.008314,-0.000435,0.674350,0.559384,3.613860,782.08,41.70,highres
2.253671,67308661201,-0.066232,-0.300916,-9.774886,0.006259,-0.011527,0.000407,0.674350,0.559384,3.613860,782.08,41.70,highres
2.253671,67308676971,-0.115619,-0.318142,-9.745666,0.005932,-0.010701,0.000494,0.674350,0.559384,3.613860,782.08,41.70,highres
2.253671,67308701141,-0.128711,-0.342491,-9.738265,0.004607,-0.006043,-0.000829,0.674350,0.559384,3.613860,782.08,41.70,highres
2.253671,67308721029,-0.111934,-0.343846,-9.744321,0.000711,-0.001879,-0.000635,0.674350,0.559384,3.613860,782.08,41.70,highres
2.253759,67308739011,-0.085306,-0.345862,-9.740773,-0.002160,-0.001516,-0.001484,0.674350,0.559384,3.613860,782.08,41.70,highres
2.253759,67308759248,-0.079264,-0.342139,-9.761416,-0.003847,-0.000952,-0.000013,0.674350,0.559384,3.613860,782.08,41.70,highres
2.253759,67308779079,-0.108416,-0.313921,-9.757545,-0.005980,0.001151,0.000426,0.694727,0.563628,3.623157,782.09,41.70,highres
2.253759,67308801603,-0.130426,-0.287833,-9.757290,-0.004360,0.003996,-0.001573,0.694727,0.563628,3.623157,782.09,41.70,highres
2.253759,67308818377,-0.115552,-0.284036,-9.770860,-0.003670,0.006581,-0.000117,0.694727,0.563628,3.623157,782.09,41.70,highres
2.253759,67308834526,-0.068535,-0.270138,-9.772447,-0.002471,0.008102,-0.000734,0.694727,0.563628,3.623157,782.09,41.70,highres
2.253759,67308857033,-0.020568,-0.260639,-9.787109,-0.000962,0.006669,0.000189,0.694727,0.563628,3.623157,782.10,41.70,highres
2.253759,67308879124,-0.002072,-0.274700,-9.789300,0.002515,0.002542,0.000562,0.694727,0.563628,3.623157,782.10,41.70,highres
2.253759,67308896739,-0.033372,-0.291467,-9.783677,0.003183,-0.001650,0.000391,0.694727,0.563628,3.623157,782.10,41.70,highres
2.253835,67308919251,-0.062471,-0.308183,-9.761804,0.003488,-0.002277,0.000800,0.689082,0.547507,3.609195,782.10,41.70,highres
2.253835,67308936828,-0.078608,-0.314790,-9.769528,0.003948,-0.004113,0.000181,0.689082,0.547507,3.609195,782.10,41.70,highres
2.253835,67308956626,-0.070851,-0.330927,-9.766591,0.002572,-0.004109,-0.000422,0.689082,0.547507,3.609195,782.10,41.70,highres
2.253835,67308981624,-0.049629,-0.339085,-9.758647,-0.001093,-0.003903,0.000054,0.689082,0.547507,3.609195,782.10,41.70,highres
2.253835,67309001756,-0.073659,-0.331108,-9.763547,-0.002399,-0.004544,0.000059,0.689082,0.547507,3.609195,782.10,41.70,highres
2.253835,67309017644,-0.096883,-0.320271,-9.762159,-0.002956,-0.005606,-0.000865,0.689082,0.547507,3.609195,782.10,41.70,highres
2.253835,67309039291,-0.121315,-0.307866,-9.754432,-0.003842,-0.001088,-0.000422,0.689082,0.547507,3.609195,782.10,41.70,highres
2.253835,67309059804,-0.137886,-0.293818,-9.762999,-0.003231,0.001999,-0.000117,0.684286,0.545740,3.600412,782.10,41.70,highres
2.253916,67309081675,-0.097766,-0.294696,-9.758267,-0.001213,0.005612,0.000494,0.684286,0.545740,3.600412,782.10,41.70,highres
2.253916,67309096886,-0.067727,-0.275133,-9.777419,-0.000483,0.005798,0.000070,0.684286,0.545740,3.600412,782.10,41.70,highres
2.253916,67309121797,-0.040572,-0.294732,-9.781096,0.000883,0.003958,-0.000117,0.684286,0.545740,3.600412,782.10,41.70,highres
2.253916,67309139515,-0.054352,-0.293025,-9.777769,0.002097,0.003324,0.000325,0.684286,0.545740,3.600412,782.10,41.70,highres
2.253916,67309162431,-0.077727,-0.295672,-9.752648,0.002353,0.001475,0.000408,0.684286,0.545740,3.600412,782.10,41.70,highres
2.253916,67309177143,-0.068457,-0.314257,-9.770050,0.003183,0.001682,-0.000592,0.684286,0.545740,3.600412,782.10,41.70,highres
2.253916,67309199623,-0.060077,-0.323902,-9.765268,0.001519,0.001557,-0.000623,0.694305,0.555568,3.627709,782.10,41.70,highres
2.253916,67309215173,-0.031651,-0.323455,-9.766012,0.000950,-0.000444,-0.000022,0.694305,0.555568,3.627709,782.10,41.70,highres
2.253916,67309239189,-0.028954,-0.332124,-9.766591,-0.001485,-0.005371,-0.000508,0.694305,0.555568,3.627709,782.10,41.70,highres
2.254004,67309261892,-0.069331,-0.306767,-9.768682,-0.002071,-0.005026,0.000372,0.694305,0.555568,3.627709,782.10,41.70,highres
2.254004,67309280206,-0.094660,-0.315496,-9.758129,-0.003049,-0.005942,-0.001461,0.694305,0.555568,3.627709,782.10,41.70,highres
2.254004,67309299483,-0.106320,-0.307298,-9.767580,-0.002289,-0.004468,-0.000230,0.694305,0.555568,3.627709,782.10,41.70,highres
2.254004,67309322876,-0.106325,-0.302311,-9.765071,-0.000929,-0.000943,-0.000369,0.694305,0.555568,3.627709,782.10,41.70,highres
2.254004,67309339955,-0.093595,-0.293818,-9.759409,-0.001265,-0.000177,0.000017,0.683294,0.555237,3.602544,782.10,41.70,highres
2.254004,67309363157,-0.072779,-0.291867,-9.763710,-0.000172,0.001145,0.000008,0.683294,0.555237,3.602544,782.10,41.70,highres
2.254004,67309382167,-0.088936,-0.287768,-9.761738,0.000434,0.002338,0.000800,0.683294,0.555237,3.602544,782.10,41.70,highres
2.254004,67309402230,-0.081053,-0.295365,-9.771435,0.001482,0.002117,-0.000568,0.683294,0.555237,3.602544,782.10,41.70,highres
2.254084,67309419639,-0.082821,-0.296212,-9.761803,0.002572,0.003832,0.001105,0.683294,0.555237,3.602544,782.10,41.70,highres
2.254084,67309442168,-0.073245,-0.311271,-9.750799,0.000645,0.003608,0.000389,0.683294,0.555237,3.602544,782.10,41.70,highres
2.254084,67309457787,-0.052235,-0.305912,-9.760606,0.000739,0.001694,-0.000727,0.677563,0.559153,3.615140,782.10,41.70,highres
2.254118,67309472319,-0.042665,-0.314315,-9.764471,0.000060,0.000102,0.000128,0.682447,0.551808,3.618511,782.10,41.70,highres
2.254118,67309495308,-0.046939,-0.309182,-9.769258,-0.000483,-0.001051,-0.000720,0.682447,0.551808,3.618511,782.09,41.70,highres
2.293988,67309517094,-0.070937,-0.305991,-9.765040,-0.001540,-0.004130,-0.000414,0.682447,0.551808,3.618511,782.09,41.70,highres
2.303040,67309532141,-0.084279,-0.303191,-9.756085,-0.001102,-0.002438,-0.000422,0.682447,0.551808,3.618511,782.09,41.70,highres
2.323073,67309552176,-0.090033,-0.292423,-9.760880,-0.000929,-0.003285,0.000572,0.682447,0.551808,3.618511,782.09,41.70,highres
2.353330,67309571048,-0.076565,-0.292961,-9.771953,-0.001019,-0.002118,-0.001100,0.682447,0.551808,3.618511,782.10,41.70,highres
2.370103,67309597159,-0.079260,-0.302000,-9.765667,0.000669,-0.002061,-0.000439,0.683185,0.557817,3.620203,782.10,41.70,highres
2.386343,67309617899,-0.090033,-0.288832,-9.762076,-0.000515,-0.002514,-0.000141,0.683756,0.547915,3.616536,782.10,41.70,highres
2.403460,67309633060,-0.101605,-0.310378,-9.765271,0.001331,-0.000784,0.000053,0.683756,0.547915,3.616536,782.10,41.70,highres
2.425848,67309652021,-0.094821,-0.294817,-9.769258,-0.000788,0.001392,-0.000109,0.683756,0.547915,3.616536,782.09,41.70,highres
2.453826,67309677156,-0.078096,-0.310379,-9.765085,0.000949,0.004332,0.000903,0.683756,0.547915,3.616536,782.09,41.70,highres
2.469167,67309693938,-0.070880,-0.318758,-9.758484,0.001044,0.004155,-0.000109,0.683756,0.547915,3.616536,782.09,41.70,highres
2.495845,67309713250,-0.048755,-0.296593,-9.764682,-0.000037,0.002911,0.000188,0.683756,0.547915,3.616536,782.09,41.70,highres
2.506404,67309730490,-0.046536,-0.299478,-9.769795,0.000646,0.000516,-0.000348,0.679696,0.550846,3.619097,782.09,41.70,highres
2.522826,67309750136,-0.073343,-0.306310,-9.757287,-0.001094,-0.000135,-0.001025,0.683348,0.555147,3.610504,782.09,41.70,highres
2.552513,67309765700,-0.068486,-0.304367,-9.775718,-0.000039,-0.000635,-0.000720,0.683348,0.555147,3.610504,782.09,41.70,highres
2.572617,67309793110,-0.069683,-0.305591,-9.765667,-0.000346,-0.001831,-0.000720,0.683348,0.555147,3.610504,782.09,41.70,highres
2.587208,67309808485,-0.065889,-0.297378,-9.771650,-0.000365,-0.001151,-0.000720,0.683348,0.555147,3.610504,782.09,41.70,highres
2.613459,67309826888,-0.059833,-0.305921,-9.765555,-0.000899,-0.003245,0.000086,0.683348,0.555147,3.610504,782.09,41.70,highres
2.623391,67309844870,-0.085430,-0.297026,-9.767831,0.000537,-0.002382,-0.000212,0.683348,0.555147,3.610504,782.09,41.70,highres
2.653067,67309867923,-0.094821,-0.288832,-9.760880,-0.000002,-0.002930,0.000243,0.688339,0.550202,3.616545,782.09,41.70,highres
2.668765,67309892863,-0.097215,-0.300803,-9.766865,-0.000390,-0.001171,-0.000533,0.685126,0.556603,3.630975,782.09,41.70,highres
2.687836,67309910521,-0.087403,-0.295772,-9.769501,0.000952,0.000888,-0.000414,0.685126,0.556603,3.630975,782.09,41.70,highres
2.703448,67309930601,-0.081981,-0.300475,-9.765450,-0.000788,0.002308,0.000502,0.685126,0.556603,3.630975,782.09,41.70,highres
2.722312,67309959587,-0.068486,-0.293199,-9.763627,0.000326,0.000889,-0.000505,0.685126,0.556603,3.630975,782.09,41.70,highres
2.753805,67309982236,-0.097217,-0.304990,-9.756089,-0.000487,0.001903,-0.000414,0.685126,0.556603,3.630975,782.09,41.70,highres
2.769932,67310002397,-0.075789,-0.311334,-9.777070,-0.000613,0.001568,-0.001010,0.685126,0.556603,3.630975,782.09,41.70,highres
2.796266,67310023692,-0.076266,-0.306788,-9.759083,-0.000967,0.001278,0.000069,0.672467,0.554598,3.604445,782.09,41.70,highres
2.803778,67310037609,-0.076634,-0.304954,-9.774279,-0.000483,0.000476,-0.000537,0.672467,0.554598,3.604445,782.09,41.70,highres
2.822923,67310056161,-0.056319,-0.309378,-9.769991,-0.001025,-0.000627,-0.000227,0.672467,0.554598,3.604445,782.09,41.70,highres
2.854558,67310075656,-0.052673,-0.289998,-9.774077,-0.000483,0.000476,0.000808,0.672467,0.554598,3.604445,782.09,41.70,highres
2.870195,67310102587,-0.073274,-0.284044,-9.769258,-0.001232,-0.002273,0.000029,0.672467,0.554598,3.604445,782.09,41.70,highres
2.886773,67310116605,-0.070834,-0.306765,-9.772194,-0.000327,-0.003261,-0.001139,0.672467,0.554598,3.604445,782.09,41.70,highres
2.902935,67310137432,-0.077844,-0.304407,-9.767384,0.000024,-0.001863,-0.000213,0.672467,0.554598,3.604445,782.08,41.70,highres
2.923867,67310158691,-0.084400,-0.300591,-9.764962,0.000128,-0.001662,-0.000414,0.685958,0.572741,3.620277,782.08,41.70,highres
2.942713,67310176351,-0.078746,-0.310545,-9.765320,-0.000483,-0.000702,-0.000981,0.685958,0.572741,3.620277,782.08,41.70,highres
2.969334,67310196502,-0.080086,-0.310835,-9.764385,0.000622,-0.001662,-0.000509,0.685958,0.572741,3.620277,782.08,41.70,highres
2.994907,67310218020,-0.088675,-0.308514,-9.754410,0.000433,-0.000834,0.000502,0.685958,0.572741,3.620277,782.09,41.70,highres
3.002640,67310238571,-0.092427,-0.302000,-9.763273,0.000739,0.000476,-0.000109,0.685958,0.572741,3.620277,782.09,41.70,highres
3.024022,67310256948,-0.088017,-0.305597,-9.768863,-0.000615,0.000781,-0.000021,0.685958,0.572741,3.620277,782.09,41.70,highres
3.053349,67310280758,-0.068304,-0.301817,-9.762389,-0.001705,0.000781,0.000808,0.685958,0.572741,3.620277,782.09,41.70,highres
3.068949,67310295966,-0.061304,-0.306729,-9.762724,-0.000822,0.001833,-0.001025,0.686262,0.557843,3.614627,782.10,41.70,highres
3.091899,67310318171,-0.058910,-0.298408,-9.772849,0.000096,0.000202,-0.000845,0.682734,0.543903,3.613376,782.10,41.70,highres
3.102579,67310337719,-0.061304,-0.290029,-9.766865,0.000128,-0.001357,-0.000720,0.682734,0.543903,3.613376,782.10,41.70,highres
3.122591,67310356486,-0.067133,-0.309079,-9.777014,-0.001360,-0.001224,-0.000720,0.682734,0.543903,3.613376,782.10,41.70,highres
3.152710,67310377841,-0.082496,-0.296467,-9.764923,0.000194,-0.001596,0.000333,0.682734,0.543903,3.613376,782.10,41.70,highres
3.170446,67310400493,-0.072812,-0.297250,-9.763775,0.001104,-0.001360,-0.000474,0.682734,0.543903,3.613376,782.10,41.70,highres
3.186120,67310418861,-0.082180,-0.302246,-9.773554,0.000433,-0.002336,-0.000477,0.682734,0.543903,3.613376,782.10,41.70,highres
3.203064,67310438419,-0.064895,-0.305591,-9.769259,0.000433,-0.001051,-0.001025,0.681751,0.555068,3.619863,782.10,41.70,highres
3.223257,67310457234,-0.070018,-0.299969,-9.764413,-0.000696,-0.001357,-0.001025,0.667880,0.554233,3.613220,782.09,41.70,highres
3.253888,67310481943,-0.085371,-0.305079,-9.759598,0.000781,-0.000468,-0.000872,0.667880,0.554233,3.613220,782.09,41.70,highres
3.256091,67310494884,-0.089694,-0.294493,-9.760127,-0.000248,0.000058,-0.000058,0.667880,0.554233,3.613220,782.09,41.70,highres
3.256091,67310511090,-0.093750,-0.309068,-9.755340,0.000129,0.001745,-0.000831,0.667880,0.554233,3.613220,782.09,41.70,highres
3.305264,67310538098,-0.081401,-0.304573,-9.753241,-0.000378,0.001195,-0.000208,0.667880,0.554233,3.613220,782.10,41.70,highres
3.333801,67310558410,-0.072460,-0.306930,-9.760129,-0.001709,-0.000195,-0.000656,0.667880,0.554233,3.613220,782.10,41.70,highres
3.352653,67310579458,-0.066218,-0.289916,-9.758930,-0.001055,0.001435,-0.000791,0.676017,0.554230,3.621587,782.10,41.70,highres
3.369174,67310596555,-0.067359,-0.303766,-9.770844,0.000114,0.000575,-0.000860,0.681503,0.548542,3.620150,782.10,41.70,highres
3.386176,67310618394,-0.065867,-0.303929,-9.768651,0.000542,-0.000741,-0.000427,0.681503,0.548542,3.620150,782.09,41.70,highres
3.403576,67310637023,-0.068844,-0.298797,-9.761338,-0.000177,0.000234,0.000327,0.681503,0.548542,3.620150,782.09,41.70,highres
3.425300,67310658163,-0.062943,-0.294011,-9.766807,0.000887,-0.000899,0.000438,0.681503,0.548542,3.620150,782.09,41.70,highres
3.454158,67310683671,-0.063194,-0.295249,-9.769137,0.000434,-0.001903,-0.000104,0.681503,0.548542,3.620150,782.09,41.70,highres
3.469717,67310701185,-0.064672,-0.301983,-9.771051,0.000387,-0.000836,0.000025,0.681503,0.548542,3.620150,782.09,41.70,highres
3.486729,67310721335,-0.078189,-0.303083,-9.769705,0.001350,-0.002268,-0.000409,0.679459,0.556803,3.617883,782.09,41.70,highres
3.504224,67310739220,-0.076051,-0.308641,-9.761668,0.000434,-0.000763,0.000311,0.682486,0.564426,3.631741,782.09,41.70,highres
3.522369,67310758861,-0.086568,-0.311462,-9.755341,0.000129,-0.001047,0.000202,0.682486,0.564426,3.631741,782.09,41.70,highres
3.552783,67310779281,-0.092595,-0.306695,-9.775184,-0.000022,-0.000733,-0.000560,0.682486,0.564426,3.631741,782.09,41.70,highres
3.569867,67310801106,-0.071006,-0.305902,-9.758080,-0.000374,0.000874,-0.000429,0.682486,0.564426,3.631741,782.09,41.70,highres
3.587985,67310820197,-0.080583,-0.301886,-9.763719,0.000434,0.001091,-0.000104,0.682486,0.564426,3.631741,782.09,41.70,highres
3.602602,67310837953,-0.073478,-0.310265,-9.762075,0.000854,0.000843,-0.000839,0.682486,0.564426,3.631741,782.09,41.70,highres
3.631879,67310858066,-0.076239,-0.293199,-9.756366,0.000914,-0.000217,-0.000583,0.684074,0.552004,3.620193,782.09,41.70,highres
3.652819,67310881391,-0.083747,-0.311390,-9.757524,-0.000051,-0.000310,-0.000230,0.703256,0.549658,3.630678,782.09,41.70,highres
3.670887,67310897778,-0.069809,-0.302001,-9.755226,0.001345,0.001086,-0.000409,0.703256,0.549658,3.630678,782.09,41.70,highres
3.687018,67310924969,-0.072534,-0.310265,-9.760814,-0.001182,0.000044,-0.000059,0.703256,0.549658,3.630678,782.09,41.70,highres
3.703095,67310942064,-0.068448,-0.288883,-9.766278,-0.000275,-0.000539,-0.000715,0.703256,0.549658,3.630678,782.09,41.70,highres
3.722574,67310959541,-0.071378,-0.303742,-9.768591,-0.000712,-0.001123,-0.000943,0.703256,0.549658,3.630678,782.09,41.70,highres
3.754952,67310981749,-0.081227,-0.299492,-9.773618,0.000434,-0.001598,0.000343,0.703256,0.549658,3.630678,782.09,41.70,highres
3.769807,67311001563,-0.080039,-0.298861,-9.766113,0.000129,-0.001208,-0.000409,0.682719,0.557588,3.619174,782.09,41.70,highres
3.793997,67311021291,-0.083983,-0.296172,-9.765380,0.001399,0.000550,-0.000034,0.683983,0.537481,3.622478,782.09,41.70,highres
3.803961,67311031829,-0.074860,-0.306231,-9.759505,0.000051,-0.001089,-0.000679,0.683983,0.537481,3.622478,782.09,41.70,highres
3.825959,67311060902,-0.074619,-0.309068,-9.766915,-0.000379,-0.000338,-0.000409,0.683983,0.537481,3.622478,782.09,41.70,highres
3.852707,67311079301,-0.087829,-0.308666,-9.766579,0.000129,-0.000063,-0.001087,0.683983,0.537481,3.622478,782.09,41.70,highres
3.871526,67311100994,-0.084174,-0.305477,-9.772099,0.000054,0.000440,0.000127,0.683983,0.537481,3.622478,782.10,41.70,highres
3.886402,67311118549,-0.084609,-0.308851,-9.762414,-0.000242,-0.000251,-0.000104,0.683983,0.537481,3.622478,782.10,41.70,highres
3.903852,67311138827,-0.090553,-0.301624,-9.758399,0.000637,0.001025,0.000507,0.685024,0.556505,3.617986,782.10,41.70,highres
3.922837,67311159143,-0.080045,-0.299133,-9.764736,-0.000436,0.000012,0.000390,0.688552,0.539628,3.597827,782.10,41.70,highres
3.953699,67311181507,-0.063032,-0.293024,-9.771383,0.000003,0.000786,-0.000390,0.688552,0.539628,3.597827,782.09,41.50,highres
3.968993,67311195731,-0.060644,-0.296660,-9.759457,0.000129,0.000175,-0.000409,0.688552,0.539628,3.597827,782.09,41.50,highres
3.988650,67311217845,-0.066888,-0.308733,-9.774493,-0.000177,-0.001047,0.000507,0.688552,0.539628,3.597827,782.09,41.50,highres
4.012740,67311229361,-0.068600,-0.306092,-9.770908,0.000365,-0.000574,-0.000291,0.688552,0.539628,3.597827,782.09,41.50,highres
4.037389,67311252201,-0.069390,-0.301323,-9.764916,-0.001075,-0.000279,-0.000243,0.688552,0.539628,3.597827,782.09,41.30,highres
4.053853,67311267401,-0.079165,-0.302721,-9.767673,0.000243,-0.001315,0.000048,0.682514,0.553886,3.619683,782.09,41.30,highres
4.070833,67311286693,-0.069185,-0.309033,-9.770919,0.000129,0.000786,-0.000104,0.668334,0.562239,3.613443,782.09,41.30,highres
4.092763,67311311917,-0.081005,-0.313469,-9.769652,0.000129,-0.000886,0.000475,0.668334,0.562239,3.613443,782.09,41.30,highres
4.103880,67311326704,-0.075366,-0.303083,-9.757960,-0.000300,0.000207,0.001118,0.668334,0.562239,3.613443,782.10,41.30,highres
4.123197,67311347187,-0.081780,-0.313856,-9.770902,-0.000355,-0.001352,0.000151,0.668334,0.562239,3.613443,782.10,41.30,highres
4.154167,67311369652,-0.087043,-0.313856,-9.767906,0.000334,-0.001041,0.000202,0.668334,0.562239,3.613443,782.10,41.30,highres
4.168988,67311387364,-0.082361,-0.297098,-9.764266,-0.000177,0.000162,-0.000883,0.668334,0.562239,3.613443,782.10,41.30,highres
4.187332,67311401998,-0.084133,-0.307046,-9.764585,-0.001399,0.000939,-0.000258,0.679036,0.551103,3.620195,782.10,41.30,highres
4.203199,67311424740,-0.086131,-0.302827,-9.763843,-0.001093,0.000480,0.000507,0.692043,0.542650,3.629215,782.10,41.30,highres
4.224537,67311444402,-0.067468,-0.310318,-9.762469,-0.000732,0.001161,0.000813,0.692043,0.542650,3.629215,782.10,41.30,highres
4.253862,67311464753,-0.066290,-0.299368,-9.756609,-0.000663,0.000537,0.000383,0.692043,0.542650,3.629215,782.10,41.30,highres
4.262598,67311499841,-0.072227,-0.292290,-9.769380,-0.000176,-0.000431,-0.001013,0.692043,0.542650,3.629215,782.10,41.30,highres
4.262598,67311520479,-0.067439,-0.301869,-9.762197,0.000740,0.001096,-0.000097,0.692043,0.542650,3.629215,782.10,41.30,highres
4.303456,67311537013,-0.070454,-0.309820,-9.767871,-0.000176,-0.000560,-0.000402,0.692043,0.542650,3.629215,782.10,41.30,highres
4.335708,67311559504,-0.072116,-0.299990,-9.750337,0.000129,0.000790,-0.001013,0.682908,0.553108,3.614676,782.10,41.30,highres
4.353338,67311575074,-0.065045,-0.306899,-9.771536,-0.000358,-0.001042,0.000448,0.678632,0.555000,3.600174,782.10,41.30,highres
4.370715,67311597508,-0.079132,-0.298553,-9.764589,-0.001092,-0.001348,0.000514,0.678632,0.555000,3.600174,782.10,41.30,highres
4.395828,67311619288,-0.090935,-0.298578,-9.771924,-0.000005,0.001267,0.000478,0.678632,0.555000,3.600174,782.10,41.30,highres
4.404686,67311634722,-0.069521,-0.303274,-9.765424,-0.000361,0.000550,-0.000152,0.678632,0.555000,3.600174,782.10,41.30,highres
4.425127,67311662560,-0.069301,-0.307454,-9.772837,0.001147,0.000180,-0.001183,0.678632,0.555000,3.600174,782.10,41.30,highres
4.454307,67311679471,-0.080320,-0.304110,-9.765480,0.000740,0.000180,-0.000402,0.678632,0.555000,3.600174,782.10,41.30,highres
4.471261,67311692674,-0.073424,-0.298977,-9.756559,0.000106,-0.001677,0.000514,0.686081,0.554237,3.617590,782.10,41.30,highres
4.489321,67311715092,-0.074151,-0.298964,-9.758644,0.000020,-0.000115,-0.000085,0.670036,0.563822,3.622769,782.10,41.30,highres
4.508022,67311734602,-0.088626,-0.298850,-9.751529,0.000516,0.000098,0.000385,0.670036,0.563822,3.622769,782.09,41.30,highres
4.522115,67311760409,-0.073881,-0.300026,-9.774624,0.000740,0.001096,-0.001342,0.670036,0.563822,3.622769,782.09,41.30,highres
4.553752,67311782896,-0.077950,-0.297605,-9.760795,0.000077,0.001282,-0.000097,0.670036,0.563822,3.622769,782.09,41.30,highres
4.569444,67311798241,-0.070937,-0.295915,-9.759926,0.000122,-0.001191,0.000984,0.670036,0.563822,3.622769,782.09,41.30,highres
4.593166,67311820363,-0.071030,-0.299475,-9.751422,0.000740,0.000180,0.000209,0.670036,0.563822,3.622769,782.09,41.30,highres
4.603772,67311832082,-0.071368,-0.302207,-9.765114,-0.000361,-0.000431,0.000607,0.678267,0.551287,3.611261,782.09,41.30,highres
4.628527,67311855493,-0.072860,-0.311873,-9.769446,0.000435,-0.000772,-0.000258,0.682843,0.543721,3.629297,782.09,41.30,highres
4.653204,67311875315,-0.081062,-0.310733,-9.769406,-0.000052,-0.001108,0.000085,0.682843,0.543721,3.629297,782.09,41.30,highres
4.670511,67311897579,-0.081292,-0.313369,-9.769379,-0.000056,-0.000311,0.000023,0.682843,0.543721,3.629297,782.09,41.30,highres
4.688271,67311919922,-0.080323,-0.300956,-9.771348,-0.000500,0.000466,0.000209,0.682843,0.543721,3.629297,782.09,41.30,highres
4.710290,67311938084,-0.072732,-0.306470,-9.755866,-0.000375,-0.000252,0.000136,0.682843,0.543721,3.629297,782.09,41.30,highres
4.722865,67311952062,-0.070953,-0.302363,-9.764096,-0.000787,0.000790,-0.000262,0.682843,0.543721,3.629297,782.09,41.30,highres
4.753822,67311969746,-0.066672,-0.297081,-9.764697,0.001046,0.000485,-0.001013,0.684706,0.553191,3.616322,782.09,41.30,highres
4.769343,67311999993,-0.075354,-0.305152,-9.766638,0.000319,0.000254,-0.000022,0.681162,0.542101,3.623155,782.09,41.30,highres
4.787221,67312015382,-0.074621,-0.298278,-9.766984,0.000129,0.001096,0.000209,0.681162,0.542101,3.623155,782.09,41.30,highres
4.803264,67312044823,-0.069838,-0.307062,-9.764185,0.000889,-0.000126,-0.000217,0.681162,0.542101,3.623155,782.09,41.30,highres
4.823518,67312058827,-0.080607,-0.301869,-9.753818,0.000129,0.000180,-0.000097,0.681162,0.542101,3.623155,782.09,41.30,highres
4.853258,67312080374,-0.078697,-0.304719,-9.762425,-0.000358,0.000238,0.000936,0.681162,0.542101,3.623155,782.09,41.30,highres
4.869714,67312102414,-0.087175,-0.303066,-9.749549,0.000122,-0.000118,-0.000238,0.681162,0.542101,3.623155,782.09,41.30,highres
4.895574,67312119945,-0.062949,-0.307556,-9.755538,0.000912,0.000180,0.000152,0.680700,0.551204,3.619658,782.09,41.30,highres
4.903525,67312138269,-0.065045,-0.307854,-9.775365,-0.000452,-0.000921,0.000849,0.676917,0.548177,3.628925,782.09,41.30,highres
4.922806,67312152537,-0.068636,-0.299294,-9.770067,-0.000481,-0.001042,-0.000707,0.676917,0.548177,3.628925,782.09,41.30,highres
4.952709,67312172946,-0.074177,-0.290651,-9.778245,0.000129,-0.000126,-0.000402,0.676917,0.548177,3.628925,782.09,41.30,highres
4.970980,67312192463,-0.080607,-0.299475,-9.764590,-0.001092,-0.000126,-0.000402,0.676917,0.548177,3.628925,782.09,41.30,highres
4.988201,67312212685,-0.075361,-0.303699,-9.772142,-0.001108,0.000211,-0.000273,0.676917,0.548177,3.628925,782.09,41.30,highres
5.002550,67312230491,-0.074504,-0.293373,-9.770574,0.000245,0.000138,-0.000897,0.676917,0.548177,3.628925,782.09,41.30,highres
5.033246,67312260470,-0.072227,-0.304263,-9.764590,-0.000355,0.000969,0.000566,0.684088,0.557231,3.614377,782.09,41.30,highres
5.053728,67312278175,-0.097365,-0.312643,-9.763391,0.000129,-0.000737,0.002041,0.663138,0.552376,3.612397,782.09,41.30,highres
5.069303,67312300775,-0.081921,-0.306657,-9.766749,0.000435,0.000485,0.000384,0.663138,0.552376,3.612397,782.09,41.30,highres
5.086931,67312317763,-0.080607,-0.299475,-9.763394,-0.000481,0.000790,-0.000097,0.663138,0.552376,3.612397,782.09,41.30,highres
5.102548,67312332709,-0.077395,-0.293896,-9.755420,0.000129,0.001096,-0.000097,0.663138,0.552376,3.612397,782.09,41.30,highres
5.125712,67312353688,-0.062624,-0.295229,-9.768410,-0.000481,0.002318,0.001125,0.663138,0.552376,3.612397,782.09,41.30,highres
5.152472,67312373126,-0.074084,-0.295884,-9.751960,0.001046,0.001707,-0.000402,0.663138,0.552376,3.612397,782.10,41.30,highres
5.170396,67312393766,-0.080527,-0.299406,-9.759882,0.000435,0.000180,0.000209,0.676126,0.562734,3.619560,782.10,41.30,highres
5.187573,67312418802,-0.074621,-0.293289,-9.761522,0.000288,0.001121,-0.000867,0.667213,0.543080,3.608130,782.10,41.30,highres
5.202677,67312437776,-0.074621,-0.300672,-9.760999,-0.000176,0.000485,-0.000097,0.667213,0.543080,3.608130,782.10,41.30,highres
5.223323,67312457696,-0.068884,-0.293868,-9.767740,0.000937,0.000574,-0.000599,0.667213,0.543080,3.608130,782.10,41.30,highres
5.253149,67312473029,-0.060698,-0.303570,-9.763928,-0.000533,0.000561,0.000412,0.667213,0.543080,3.608130,782.10,41.30,highres
5.269118,67312500961,-0.070517,-0.303298,-9.773912,-0.000478,0.000178,-0.000708,0.667213,0.543080,3.608130,782.10,41.30,highres
5.269118,67312516533,-0.080962,-0.303911,-9.755894,-0.001089,-0.001343,-0.001013,0.667213,0.543080,3.608130,782.10,41.30,highres
5.310073,67312533668,-0.088656,-0.306220,-9.751454,-0.000783,-0.000908,0.000012,0.682593,0.553555,3.616835,782.09,41.30,highres
5.323492,67312556404,-0.090197,-0.297820,-9.755795,-0.000477,0.000032,-0.000708,0.681376,0.545249,3.628021,782.09,41.30,highres
5.353441,67312573575,-0.070310,-0.300256,-9.771398,0.000111,0.000304,-0.000097,0.681376,0.545249,3.628021,782.09,41.30,highres
5.370959,67312599315,-0.075833,-0.311434,-9.761029,0.000438,-0.000121,-0.000097,0.681376,0.545249,3.628021,782.09,41.30,highres
5.386138,67312616219,-0.068178,-0.303864,-9.757995,0.000237,-0.000629,-0.001013,0.681376,0.545249,3.628021,782.09,41.30,highres
5.403781,67312642674,-0.080680,-0.310681,-9.754039,0.000133,0.000184,-0.000271,0.681376,0.545249,3.628021,782.09,41.30,highres
5.422562,67312657491,-0.086331,-0.304437,-9.755505,0.001447,0.001711,-0.000402,0.681376,0.545249,3.628021,782.09,41.30,highres
5.453688,67312680263,-0.065950,-0.293056,-9.765700,-0.000064,0.000825,0.000130,0.679807,0.554483,3.618469,782.09,41.30,highres
5.470082,67312698569,-0.069602,-0.301858,-9.767276,0.000036,-0.001358,-0.001125,0.706395,0.555025,3.596835,782.09,41.30,highres
5.486887,67312719633,-0.060271,-0.297070,-9.768211,-0.000172,-0.001649,-0.001013,0.706395,0.555025,3.596835,782.09,41.30,highres
5.503010,67312741153,-0.073662,-0.292768,-9.766548,0.000133,-0.001097,-0.000216,0.706395,0.555025,3.596835,782.09,41.30,highres
5.522771,67312759123,-0.077416,-0.305835,-9.762594,-0.000079,-0.001752,0.000406,0.706395,0.555025,3.596835,782.09,41.30,highres
5.552689,67312778685,-0.066711,-0.303055,-9.776136,-0.000074,-0.000319,-0.000708,0.706395,0.555025,3.596835,782.09,41.30,highres
5.571301,67312798360,-0.071045,-0.303055,-9.763425,-0.001089,0.000795,0.000819,0.706395,0.555025,3.596835,782.09,41.30,highres
5.586917,67312820944,-0.075596,-0.309599,-9.769173,0.000299,-0.000898,0.000052,0.686875,0.555896,3.616040,782.09,41.30,highres
5.603310,67312836328,-0.075345,-0.300661,-9.762715,-0.001250,-0.000727,-0.000247,0.669423,0.552578,3.625640,782.09,41.30,highres
5.622340,67312858602,-0.080302,-0.309413,-9.767015,0.000137,0.000485,0.000054,0.669423,0.552578,3.625640,782.09,41.30,highres
5.653941,67312878661,-0.081818,-0.304252,-9.761030,-0.000476,0.000946,0.000819,0.669423,0.552578,3.625640,782.09,41.30,highres
5.669036,67312894323,-0.082483,-0.300993,-9.761463,0.000291,0.001869,0.000209,0.669423,0.552578,3.625640,782.09,41.30,highres
5.687359,67312914009,-0.073439,-0.315557,-9.768435,0.001049,0.000195,-0.000097,0.669423,0.552578,3.625640,782.09,41.30,highres
5.703694,67312930926,-0.069778,-0.293982,-9.754784,-0.000783,0.000795,-0.000402,0.669423,0.552578,3.625640,782.09,41.30,highres
5.722703,67312958689,-0.071045,-0.306646,-9.762227,0.000133,0.000340,0.000209,0.686064,0.576070,3.609222,782.09,41.30,highres
5.752884,67312971231,-0.069495,-0.293291,-9.756923,-0.000478,0.000576,-0.000926,0.686064,0.576070,3.609222,782.09,41.30,highres
5.769867,67312994622,-0.064118,-0.298328,-9.765500,0.000056,-0.000808,-0.000173,0.686064,0.576070,3.609222,782.09,41.30,highres
5.788556,67313014471,-0.079424,-0.304252,-9.762227,-0.000172,-0.000150,-0.000569,0.686064,0.576070,3.609222,782.09,41.30,highres
5.804879,67313033937,-0.077030,-0.298267,-9.758636,0.000264,-0.000267,-0.000388,0.686064,0.576070,3.609222,782.09,41.30,highres
5.824076,67313062067,-0.066288,-0.302885,-9.765722,0.000491,-0.000882,-0.000420,0.686064,0.576070,3.609222,782.09,41.30,highres
5.853426,67313078471,-0.076183,-0.301420,-9.772563,-0.000082,-0.000232,-0.000916,0.686064,0.576070,3.609222,782.09,41.30,highres
5.872342,67313098393,-0.072725,-0.303286,-9.759679,-0.000172,-0.001038,0.001252,0.683022,0.551441,3.610790,782.10,41.30,highres
5.894147,67313118835,-0.078637,-0.308664,-9.757850,0.000125,0.001510,-0.000603,0.685956,0.547378,3.604961,782.10,41.30,highres
5.903420,67313131274,-0.078844,-0.298229,-9.755006,0.000760,-0.000587,0.000353,0.685956,0.547378,3.604961,782.10,41.30,highres
5.923665,67313158355,-0.085342,-0.317353,-9.761166,-0.000627,0.000333,-0.000097,0.685956,0.547378,3.604961,782.10,41.30,highres
5.954029,67313178887,-0.077030,-0.295387,-9.759758,-0.000370,-0.000117,-0.000097,0.685956,0.547378,3.604961,782.10,41.15,highres
5.968919,67313201389,-0.084695,-0.291567,-9.768694,-0.000692,0.001834,0.000391,0.685956,0.547378,3.604961,782.10,41.15,highres
5.995909,67313221392,-0.074636,-0.301802,-9.757410,-0.001635,-0.000850,0.000332,0.685956,0.547378,3.604961,782.10,41.15,highres
6.004009,67313237389,-0.074590,-0.302399,-9.765818,-0.000017,-0.000115,-0.001157,0.688933,0.560508,3.611576,782.10,41.15,highres
6.022349,67313260159,-0.069770,-0.291065,-9.762633,0.000816,-0.001038,0.000325,0.679770,0.559694,3.613705,782.10,41.00,highres
6.053409,67313281386,-0.072466,-0.293703,-9.759646,-0.000239,0.000003,0.000457,0.679770,0.559694,3.613705,782.10,41.00,highres
6.069703,67313295973,-0.067743,-0.286324,-9.768343,-0.000478,-0.001954,0.000209,0.679770,0.559694,3.613705,782.10,41.00,highres
6.094235,67313317004,-0.071029,-0.307570,-9.767546,-0.000172,-0.001820,0.000297,0.679770,0.559694,3.613705,782.10,41.00,highres
6.107775,67313331108,-0.089445,-0.306367,-9.761725,0.000619,-0.001398,-0.000097,0.679770,0.559694,3.613705,782.10,41.00,highres
6.126469,67313357008,-0.080901,-0.312983,-9.771731,0.000124,0.000786,-0.000106,0.679770,0.559694,3.613705,782.10,41.00,highres
6.152928,67313372195,-0.078133,-0.309807,-9.765574,-0.000707,-0.000274,0.000132,0.686140,0.556041,3.615889,782.10,41.00,highres
6.171689,67313389519,-0.080585,-0.309729,-9.761882,0.000278,0.000562,0.001081,0.681787,0.555956,3.602042,782.10,41.00,highres
6.187153,67313406483,-0.076234,-0.308481,-9.774198,0.000133,0.000795,-0.001193,0.681787,0.555956,3.602042,782.09,41.00,highres
6.211221,67313436852,-0.067972,-0.303529,-9.758281,-0.000911,0.000594,0.000176,0.681787,0.555956,3.602042,782.09,41.00,highres
6.223497,67313459631,-0.090887,-0.303539,-9.760547,-0.001126,0.000356,-0.000708,0.681787,0.555956,3.602042,782.09,41.00,highres
6.253346,67313479217,-0.082707,-0.304774,-9.761031,-0.000133,0.001485,0.000248,0.681787,0.555956,3.602042,782.09,41.00,highres
6.270132,67313501259,-0.068935,-0.304985,-9.765412,-0.001087,0.001830,0.000883,0.681787,0.555956,3.602042,782.10,41.00,highres
6.270132,67313518865,-0.065082,-0.307855,-9.773053,0.001662,0.001102,-0.000707,0.682606,0.561243,3.620171,782.10,41.00,highres
6.310999,67313539138,-0.062920,-0.305770,-9.760544,0.000470,-0.000337,-0.000263,0.683769,0.548770,3.611782,782.10,41.00,highres
6.322946,67313554583,-0.069593,-0.313349,-9.768267,0.001375,-0.000893,0.000982,0.683769,0.548770,3.611782,782.10,41.00,highres
6.352837,67313581389,-0.073295,-0.301210,-9.751383,0.000472,-0.000226,0.000683,0.683769,0.548770,3.611782,782.09,41.00,highres
6.370428,67313597258,-0.071633,-0.311705,-9.759320,0.000890,-0.000570,0.000065,0.683769,0.548770,3.611782,782.09,41.00,highres
6.388663,67313621390,-0.071472,-0.314192,-9.759887,0.001049,-0.000577,-0.000398,0.683769,0.548770,3.611782,782.09,41.00,highres
6.402785,67313636569,-0.079130,-0.308487,-9.757741,-0.001038,0.000024,0.000708,0.683769,0.548770,3.611782,782.09,41.00,highres
6.423033,67313654541,-0.078027,-0.311711,-9.762769,0.000746,-0.000426,0.000210,0.681836,0.554996,3.615950,782.10,41.00,highres
6.453912,67313676593,-0.079572,-0.294687,-9.773349,-0.001095,-0.000426,0.000366,0.685429,0.550426,3.614739,782.10,41.00,highres
6.469458,67313691168,-0.077500,-0.307892,-9.766659,-0.001127,-0.000598,-0.000932,0.685429,0.550426,3.614739,782.10,41.00,highres
6.491976,67313711500,-0.084235,-0.306658,-9.752703,-0.000081,0.001275,-0.000270,0.685429,0.550426,3.614739,782.10,41.00,highres
6.502646,67313738938,-0.074658,-0.301870,-9.761085,-0.000494,0.001012,0.000407,0.685429,0.550426,3.614739,782.09,41.00,highres
6.522786,67313756541,-0.086481,-0.299741,-9.755173,-0.000333,0.001837,0.000210,0.685429,0.550426,3.614739,782.09,41.00,highres
6.554508,67313780533,-0.063885,-0.306658,-9.762281,-0.000171,0.001102,-0.000096,0.685429,0.550426,3.614739,782.09,41.00,highres
6.570167,67313799261,-0.078937,-0.316717,-9.762460,0.000265,-0.000257,-0.000492,0.682299,0.560873,3.616224,782.09,41.00,highres
6.589019,67313822084,-0.080948,-0.303371,-9.769570,-0.000221,0.001307,-0.000096,0.676930,0.563469,3.618340,782.08,41.00,highres
6.603930,67313841643,-0.084181,-0.312697,-9.766253,0.000343,-0.000023,-0.001026,0.676930,0.563469,3.618340,782.08,41.00,highres
6.629101,67313860174,-0.074147,-0.311620,-9.759895,-0.000084,0.000099,0.000559,0.676930,0.563469,3.618340,782.08,41.00,highres
6.653791,67313877799,-0.077207,-0.307504,-9.766212,0.000440,0.000535,-0.000925,0.676930,0.563469,3.618340,782.08,41.00,highres
6.670014,67313897636,-0.065181,-0.311745,-9.768167,-0.000171,0.000058,-0.000147,0.676930,0.563469,3.618340,782.08,41.00,highres
6.689560,67313923243,-0.079667,-0.291204,-9.760100,-0.000447,-0.000174,-0.000207,0.676930,0.563469,3.618340,782.08,41.00,highres
6.709314,67313942354,-0.087001,-0.301539,-9.757492,0.000450,0.000270,0.000209,0.679373,0.556551,3.618839,782.08,41.00,highres
6.723593,67313960494,-0.076119,-0.303228,-9.765667,-0.000171,-0.000426,-0.000308,0.676114,0.547304,3.631426,782.08,41.00,highres
6.753438,67313977935,-0.084350,-0.298788,-9.764133,-0.000643,-0.000149,0.001126,0.676114,0.547304,3.631426,782.08,41.00,highres
6.769248,67313997478,-0.073328,-0.300263,-9.761117,-0.000066,0.000892,0.000410,0.676114,0.547304,3.631426,782.08,41.00,highres
6.793890,67314017753,-0.063192,-0.317431,-9.776708,-0.000952,0.000931,0.000039,0.676114,0.547304,3.631426,782.08,41.00,highres
6.804131,67314040771,-0.083038,-0.298279,-9.764675,0.000440,0.000796,-0.000096,0.676114,0.547304,3.631426,782.08,41.00,highres
6.829916,67314057155,-0.065627,-0.306006,-9.770649,0.001198,0.000955,-0.001012,0.676114,0.547304,3.631426,782.09,41.00,highres
6.853546,67314084769,-0.073201,-0.309681,-9.768526,0.000241,0.002190,-0.000640,0.686690,0.559296,3.613257,782.09,41.00,highres
6.870275,67314099445,-0.072548,-0.318060,-9.772064,-0.000297,-0.000067,0.000335,0.686690,0.559296,3.613257,782.09,41.00,highres
6.887388,67314119565,-0.072198,-0.303632,-9.753102,-0.000026,0.000058,-0.000546,0.686690,0.559296,3.613257,782.09,41.00,highres
6.905318,67314135099,-0.058410,-0.296395,-9.765696,-0.000301,-0.000691,-0.000226,0.686690,0.559296,3.613257,782.09,41.00,highres
6.923882,67314154784,-0.075676,-0.296671,-9.762065,0.001254,-0.000325,0.000464,0.686690,0.559296,3.613257,782.09,41.00,highres
6.950085,67314177230,-0.082903,-0.305326,-9.749542,0.000044,0.000400,-0.000005,0.686690,0.559296,3.613257,782.09,41.00,highres
6.969584,67314197098,-0.077720,-0.300028,-9.760531,-0.000476,0.000491,-0.000096,0.686690,0.559296,3.613257,782.09,41.00,highres
6.993633,67314212103,-0.077284,-0.295189,-9.765157,0.000135,-0.000233,-0.000262,0.680359,0.555629,3.610547,782.10,41.00,highres
7.003053,67314232033,-0.069782,-0.301870,-9.768815,-0.000171,0.000684,0.000226,0.684312,0.557503,3.618396,782.10,41.00,highres
7.023367,67314247101,-0.067008,-0.301636,-9.760836,0.000746,-0.001036,-0.001318,0.684312,0.557503,3.618396,782.10,41.00,highres
7.052983,67314272252,-0.074658,-0.299476,-9.770659,-0.000570,0.000291,0.001132,0.684312,0.557503,3.618396,782.10,41.00,highres
7.073094,67314292181,-0.086629,-0.293490,-9.759887,0.001205,0.001105,0.000822,0.684312,0.557503,3.618396,782.10,41.00,highres
7.090906,67314307241,-0.083401,-0.314566,-9.768629,-0.000476,0.001407,-0.000096,0.684312,0.557503,3.618396,782.10,41.00,highres
7.106139,67314324418,-0.075997,-0.296447,-9.766012,-0.000317,0.001859,0.000210,0.684312,0.557503,3.618396,782.10,41.00,highres
7.125287,67314347471,-0.090452,-0.300557,-9.765756,-0.001087,0.000491,-0.000401,0.684003,0.554437,3.617405,782.10,41.00,highres
7.152700,67314378712,-0.070576,-0.301224,-9.760318,-0.000531,0.000185,0.000515,0.672814,0.559274,3.615724,782.09,41.00,highres
7.170044,67314397296,-0.066878,-0.304862,-9.751508,-0.000087,0.000213,0.000210,0.672814,0.559274,3.615724,782.09,41.00,highres
7.195330,67314412426,-0.069870,-0.302213,-9.747581,0.000424,-0.000345,0.000579,0.672814,0.559274,3.615724,782.09,41.00,highres
7.205260,67314437532,-0.085432,-0.305810,-9.756994,-0.000372,-0.000932,-0.000192,0.672814,0.559274,3.615724,782.09,41.00,highres
7.225651,67314460661,-0.081904,-0.292492,-9.760751,-0.001002,0.001017,0.000905,0.672814,0.559274,3.615724,782.09,41.00,highres
7.252760,67314482756,-0.079111,-0.299476,-9.760917,0.000614,-0.001253,0.000646,0.672814,0.559274,3.615724,782.09,41.00,highres
7.270073,67314497944,-0.070227,-0.297113,-9.767520,-0.000194,-0.000895,-0.000589,0.682459,0.553902,3.621512,782.09,41.00,highres
7.275992,67314520111,-0.071796,-0.298494,-9.769011,0.000139,-0.001037,-0.000070,0.682030,0.555547,3.637864,782.09,41.00,highres
7.275992,67314538176,-0.072671,-0.301256,-9.752481,0.000726,-0.000426,0.000330,0.682030,0.555547,3.637864,782.09,41.00,highres
7.331942,67314557990,-0.079579,-0.306566,-9.767887,0.001056,0.000304,0.000093,0.682030,0.555547,3.637864,782.09,41.00,highres
7.353279,67314579940,-0.068666,-0.288203,-9.771680,-0.000152,0.000497,0.000986,0.682030,0.555547,3.637864,782.09,41.00,highres
7.371120,67314597380,-0.072411,-0.317765,-9.761504,-0.000166,0.000185,-0.000667,0.682030,0.555547,3.637864,782.09,41.00,highres
7.387283,67314620903,-0.076420,-0.308200,-9.769180,0.000671,-0.000798,-0.000770,0.682030,0.555547,3.637864,782.09,41.00,highres
7.412709,67314638796,-0.078996,-0.311169,-9.756387,-0.000777,0.001022,-0.000093,0.686289,0.562795,3.619177,782.09,41.00,highres
7.424355,67314660359,-0.074851,-0.308086,-9.766294,0.000445,0.000719,0.000518,0.670879,0.551069,3.625324,782.09,41.00,highres
7.453471,67314677771,-0.079864,-0.311323,-9.760482,-0.000155,0.000185,-0.000199,0.670879,0.551069,3.625324,782.09,41.00,highres
7.469454,67314697662,-0.072802,-0.301358,-9.768201,-0.001102,-0.001018,0.001148,0.670879,0.551069,3.625324,782.09,41.00,highres
7.492025,67314718477,-0.069265,-0.304297,-9.771679,-0.000777,0.000306,-0.000399,0.670879,0.551069,3.625324,782.09,41.00,highres
7.504406,67314728900,-0.065346,-0.303211,-9.751650,-0.000166,-0.000121,0.000518,0.670879,0.551069,3.625324,782.09,41.00,highres
7.533679,67314753926,-0.080587,-0.301869,-9.751380,0.000139,-0.000731,-0.001315,0.670879,0.551069,3.625324,782.09,41.00,highres
7.554534,67314778431,-0.080636,-0.295917,-9.759709,0.000171,0.000308,-0.000034,0.681558,0.555961,3.623080,782.10,41.00,highres
7.569831,67314796845,-0.072635,-0.311479,-9.764857,0.000283,0.000165,0.000518,0.678811,0.542892,3.612440,782.10,41.00,highres
7.586339,67314813944,-0.083031,-0.295197,-9.763301,0.000445,-0.000019,-0.000831,0.678811,0.542892,3.612440,782.10,41.00,highres
7.602820,67314836664,-0.070098,-0.306949,-9.764005,-0.000166,-0.000370,-0.001010,0.678811,0.542892,3.612440,782.10,41.00,highres
7.624981,67314850944,-0.075003,-0.300212,-9.764851,0.000139,0.002628,0.000518,0.678811,0.542892,3.612440,782.11,41.00,highres
7.652983,67314866085,-0.067428,-0.308268,-9.772904,-0.000969,-0.001229,-0.000252,0.678811,0.542892,3.612440,782.11,41.00,highres
7.669694,67314891780,-0.068666,-0.306691,-9.770484,-0.000471,0.000346,-0.000688,0.678811,0.542892,3.612440,782.11,41.00,highres
7.686891,67314911683,-0.072724,-0.304661,-9.771212,0.000750,-0.000121,0.000212,0.679974,0.558192,3.617998,782.11,41.00,highres
7.703774,67314941066,-0.070075,-0.302115,-9.761376,-0.000439,-0.000417,0.000306,0.674180,0.556163,3.615362,782.11,41.00,highres
7.723620,67314960820,-0.072503,-0.301410,-9.763759,0.000382,-0.000183,-0.001558,0.674180,0.556163,3.615362,782.11,41.00,highres
7.753238,67314978044,-0.073454,-0.312676,-9.756118,0.001056,-0.001648,-0.000399,0.674180,0.556163,3.615362,782.11,41.00,highres
7.769679,67315001401,-0.071380,-0.308527,-9.770510,-0.000471,-0.000173,-0.001047,0.674180,0.556163,3.615362,782.11,41.00,highres
7.791662,67315019066,-0.067666,-0.303599,-9.755331,0.000139,-0.000426,-0.000704,0.674180,0.556163,3.615362,782.11,41.00,highres
7.803276,67315037845,-0.086569,-0.292273,-9.757263,0.000376,-0.000052,0.000212,0.674180,0.556163,3.615362,782.11,41.00,highres
7.822982,67315057886,-0.080636,-0.301902,-9.754921,-0.000166,-0.000731,-0.000704,0.683241,0.549998,3.617903,782.11,41.00,highres
7.853605,67315083677,-0.081834,-0.297216,-9.758512,0.000725,-0.000439,0.000066,0.691193,0.570732,3.612892,782.11,41.00,highres
7.869858,67315093674,-0.074547,-0.310697,-9.751980,0.000417,0.000324,0.000128,0.691193,0.570732,3.612892,782.10,41.00,highres
7.887012,67315120848,-0.079734,-0.292473,-9.761957,-0.000419,-0.000158,-0.000131,0.691193,0.570732,3.612892,782.10,41.00,highres
7.903522,67315138486,-0.082060,-0.301191,-9.771906,0.000692,-0.000608,-0.000093,0.691193,0.570732,3.612892,782.10,41.00,highres
7.924426,67315159031,-0.063878,-0.301902,-9.765696,0.000445,0.000235,-0.001442,0.691193,0.570732,3.612892,782.10,41.00,highres
7.953488,67315178199,-0.067649,-0.314357,-9.763760,-0.000348,-0.000185,0.000147,0.691193,0.570732,3.612892,782.10,41.35,highres
7.970087,67315198362,-0.058601,-0.301194,-9.774295,0.000583,0.000245,0.000045,0.683206,0.550126,3.629476,782.10,41.35,highres
7.987357,67315218722,-0.074651,-0.305494,-9.766891,0.000139,0.001101,-0.000399,0.683206,0.550126,3.629476,782.10,41.35,highres
8.002983,67315238227,-0.076550,-0.307255,-9.761898,0.000427,0.000059,0.000518,0.683206,0.550126,3.629476,782.10,41.35,highres
8.022242,67315258694,-0.073073,-0.299890,-9.765287,-0.000471,-0.000933,-0.000288,0.683206,0.550126,3.629476,782.10,41.70,highres
8.055934,67315278704,-0.083646,-0.303726,-9.762082,0.000200,-0.000792,0.001189,0.683206,0.550126,3.629476,782.10,41.70,highres
8.073408,67315294470,-0.068090,-0.300705,-9.769288,-0.000046,-0.000066,0.000092,0.683206,0.550126,3.629476,782.10,41.70,highres
8.087492,67315316751,-0.076085,-0.303336,-9.766160,0.000750,0.000984,0.000236,0.683206,0.550126,3.629476,782.10,41.70,highres
8.110033,67315333634,-0.067469,-0.296404,-9.754213,-0.000008,-0.000596,0.000065,0.681797,0.553309,3.623468,782.11,41.70,highres
8.123141,67315355102,-0.075916,-0.305870,-9.762446,0.000255,0.000459,0.000096,0.681797,0.553309,3.623468,782.11,41.70,highres
8.153552,67315376442,-0.074205,-0.289627,-9.755367,0.000448,0.001098,0.000521,0.681797,0.553309,3.623468,782.11,41.70,highres
8.170279,67315394567,-0.069448,-0.304320,-9.767282,-0.000471,0.002017,0.001128,0.681797,0.553309,3.623468,782.11,41.70,highres
8.194478,67315410819,-0.069107,-0.301776,-9.766136,-0.000676,-0.000596,0.000178,0.681797,0.553309,3.623468,782.11,41.70,highres
8.203621,67315434132,-0.062166,-0.299279,-9.758855,0.000530,0.000927,-0.000225,0.681797,0.553309,3.623468,782.11,41.70,highres
8.222691,67315449569,-0.067202,-0.301112,-9.759442,0.000003,-0.000048,0.000011,0.681797,0.553309,3.623468,782.11,41.70,highres
8.254129,67315474346,-0.075520,-0.305006,-9.771626,0.000023,0.000796,0.000823,0.701877,0.556297,3.602470,782.11,41.70,highres
8.269723,67315494643,-0.065075,-0.298817,-9.773001,-0.000360,-0.000024,-0.000496,0.701877,0.556297,3.602470,782.11,41.70,highres
8.283054,67315517054,-0.074300,-0.312226,-9.763750,-0.001082,-0.000426,0.000212,0.701877,0.556297,3.602470,782.11,41.70,highres
8.283054,67315531660,-0.077044,-0.288172,-9.763920,0.000760,0.000186,0.000364,0.701877,0.556297,3.602470,782.11,41.70,highres
8.327225,67315555908,-0.071699,-0.305728,-9.759278,0.000584,-0.000375,0.000465,0.701877,0.556297,3.602470,782.11,41.70,highres
8.352985,67315581310,-0.076252,-0.309686,-9.765915,-0.000441,-0.000588,0.000824,0.701877,0.556297,3.602470,782.10,41.70,highres
8.369025,67315597250,-0.062030,-0.297329,-9.756826,-0.000180,-0.001199,-0.000109,0.701877,0.556297,3.602470,782.10,41.70,highres
8.395300,67315617401,-0.072700,-0.303126,-9.763392,0.000305,-0.000004,0.000190,0.694735,0.567121,3.597772,782.10,41.70,highres
8.413191,67315639760,-0.075828,-0.295943,-9.761552,0.001057,0.000489,0.000824,0.694735,0.567121,3.597772,782.10,41.70,highres
8.423593,67315661892,-0.075214,-0.317429,-9.755536,-0.001386,0.000081,0.000621,0.694735,0.567121,3.597772,782.10,41.70,highres
8.452510,67315678781,-0.074631,-0.306717,-9.768732,0.000446,-0.000733,-0.001620,0.694735,0.567121,3.597772,782.10,41.70,highres
8.469464,67315694572,-0.081128,-0.299650,-9.764969,0.000286,0.000649,0.000954,0.694735,0.567121,3.597772,782.10,41.70,highres
8.487714,67315714946,-0.082794,-0.300850,-9.767107,-0.000391,-0.000359,0.000971,0.694735,0.567121,3.597772,782.10,41.70,highres
8.504734,67315734317,-0.067472,-0.302913,-9.758341,-0.000672,-0.001753,0.000721,0.694735,0.567121,3.597772,782.10,41.70,highres
8.524044,67315761751,-0.073128,-0.299117,-9.765560,-0.000669,-0.000030,-0.000398,0.681525,0.548506,3.623334,782.10,41.70,highres
8.552779,67315778284,-0.071040,-0.310308,-9.766340,-0.000469,-0.001039,-0.000005,0.681525,0.548506,3.623334,782.10,41.70,highres
8.569906,67315797049,-0.078000,-0.299683,-9.762000,0.000446,-0.000428,-0.000398,0.681525,0.548506,3.623334,782.10,41.70,highres
8.595415,67315821172,-0.072237,-0.304323,-9.769930,0.000267,-0.000535,-0.000344,0.681525,0.548506,3.623334,782.11,41.70,highres
8.603685,67315843775,-0.078744,-0.302549,-9.759779,0.000970,-0.000208,0.000736,0.681525,0.548506,3.623334,782.11,41.70,highres
8.623829,67315855622,-0.078089,-0.310940,-9.758394,0.001218,-0.000234,-0.000542,0.681525,0.548506,3.623334,782.11,41.70,highres
8.653544,67315877001,-0.075088,-0.315523,-9.761437,-0.000042,0.000428,0.001129,0.681525,0.548506,3.623334,782.11,41.70,highres
8.670237,67315892171,-0.066855,-0.305516,-9.760352,0.000585,0.000408,0.000991,0.678381,0.550160,3.603225,782.10,41.70,highres
8.690524,67315917429,-0.078222,-0.312702,-9.756763,0.000141,0.000283,-0.000867,0.678381,0.550160,3.603225,782.10,41.70,highres
8.702617,67315935366,-0.068558,-0.304877,-9.758136,-0.000625,0.000489,-0.000394,0.678381,0.550160,3.603225,782.10,41.70,highres
8.731824,67315957151,-0.080547,-0.291907,-9.761621,-0.000164,-0.000801,-0.001257,0.678381,0.550160,3.603225,782.10,41.70,highres
8.753997,67315976069,-0.076501,-0.307390,-9.760853,-0.000220,0.000932,-0.000037,0.678381,0.550160,3.603225,782.10,41.70,highres
8.770001,67315991609,-0.077025,-0.304323,-9.766339,-0.000164,0.000657,0.000363,0.678381,0.550160,3.603225,782.10,41.70,highres
8.787029,67316011808,-0.087798,-0.306717,-9.766340,0.000446,0.001099,-0.001009,0.678381,0.550160,3.603225,782.10,41.70,highres
8.812506,67316029616,-0.079961,-0.299220,-9.756335,-0.000599,0.001011,0.000824,0.704012,0.565923,3.608835,782.10,41.70,highres
8.823300,67316046613,-0.062856,-0.300677,-9.776166,-0.000775,0.000183,-0.000703,0.704012,0.565923,3.608835,782.11,41.70,highres
8.853074,67316077956,-0.074025,-0.307293,-9.764509,0.001102,-0.001084,-0.000268,0.704012,0.565923,3.608835,782.11,41.70,highres
8.869014,67316099114,-0.071217,-0.309554,-9.764523,0.001363,-0.000268,0.000082,0.704012,0.565923,3.608835,782.11,41.70,highres
8.894999,67316117517,-0.085021,-0.300090,-9.777285,-0.000283,-0.000310,-0.000703,0.704012,0.565923,3.608835,782.11,41.70,highres
8.904831,67316142003,-0.082115,-0.317604,-9.754537,0.000257,-0.000407,-0.000092,0.704012,0.565923,3.608835,782.10,41.70,highres
8.923574,67316157385,-0.071600,-0.306131,-9.756763,-0.001087,0.000326,-0.001009,0.704012,0.565923,3.608835,782.10,41.70,highres
8.954798,67316182264,-0.073377,-0.309900,-9.758749,-0.000164,-0.000560,0.000518,0.690374,0.569886,3.613005,782.10,41.70,highres
8.970029,67316199249,-0.065688,-0.303830,-9.760425,-0.000470,-0.001479,0.000824,0.690374,0.569886,3.613005,782.10,41.70,highres
8.987577,67316215692,-0.071040,-0.305520,-9.763946,-0.000775,0.000794,0.000213,0.690374,0.569886,3.613005,782.09,41.70,highres
9.003246,67316237334,-0.075343,-0.303430,-9.751492,-0.000203,0.000689,-0.000398,0.690374,0.569886,3.613005,782.09,41.70,highres
9.023567,67316261764,-0.092587,-0.300226,-9.753618,-0.000435,0.000567,0.000135,0.690374,0.569886,3.613005,782.09,41.70,highres
9.052509,67316277022,-0.079117,-0.293010,-9.755383,-0.000332,0.000626,-0.001452,0.690374,0.569886,3.613005,782.09,41.70,highres
9.070606,67316298225,-0.063857,-0.291688,-9.755302,-0.000503,0.000217,-0.000296,0.690374,0.569886,3.613005,782.08,41.70,highres
9.087782,67316320438,-0.065440,-0.296221,-9.762620,-0.000470,0.000478,-0.000605,0.676830,0.548322,3.616188,782.08,41.70,highres
9.104462,67316337781,-0.070418,-0.305619,-9.757285,0.000911,0.000196,0.000080,0.676830,0.548322,3.616188,782.08,41.70,highres
9.123451,67316356909,-0.072237,-0.310308,-9.766338,0.000446,0.000189,-0.000098,0.676830,0.548322,3.616188,782.08,41.70,highres
9.152767,67316380360,-0.074631,-0.300732,-9.763946,-0.000568,-0.000024,0.000223,0.676830,0.548322,3.616188,782.08,41.70,highres
9.168912,67316401739,-0.080616,-0.304323,-9.753021,0.000647,0.000498,-0.000293,0.676830,0.548322,3.616188,782.08,41.70,highres
9.191939,67316417097,-0.068118,-0.309781,-9.763518,0.000105,-0.000122,-0.000533,0.676830,0.548322,3.616188,782.08,41.70,highres
9.203096,67316439596,-0.064607,-0.313317,-9.768700,-0.000016,-0.000707,0.000510,0.676830,0.548322,3.616188,782.08,41.70,highres
9.231978,67316462397,-0.078222,-0.306120,-9.762549,-0.000343,-0.000148,-0.000220,0.687099,0.566501,3.613458,782.09,41.70,highres
9.253766,67316479536,-0.089667,-0.310896,-9.767914,-0.000653,0.000672,0.000151,0.687099,0.566501,3.613458,782.09,41.70,highres
9.273236,67316502863,-0.082826,-0.299951,-9.760168,-0.000457,0.001452,-0.000351,0.687099,0.566501,3.613458,782.09,41.70,highres
9.282885,67316519920,-0.079860,-0.301239,-9.759032,-0.000501,0.000183,-0.000641,0.687099,0.566501,3.613458,782.09,41.70,highres
9.282885,67316535720,-0.064223,-0.295948,-9.761621,0.000194,0.001423,0.000280,0.687099,0.566501,3.613458,782.09,41.70,highres
9.324027,67316558131,-0.062601,-0.298130,-9.757212,0.000169,0.000490,0.000099,0.687099,0.566501,3.613458,782.09,41.70,highres
9.353786,67316582497,-0.071255,-0.302902,-9.752236,0.000251,0.000017,0.000183,0.687099,0.566501,3.613458,782.09,41.70,highres
9.370115,67316591905,-0.075814,-0.307919,-9.766060,-0.000163,0.000796,0.000212,0.682408,0.539190,3.605281,782.09,41.70,highres
9.386956,67316617457,-0.060253,-0.303140,-9.762648,-0.000032,-0.000906,-0.000618,0.682408,0.539190,3.605281,782.09,41.70,highres
9.411888,67316637909,-0.071026,-0.301933,-9.764862,-0.000615,0.000661,0.000054,0.682408,0.539190,3.605281,782.09,41.70,highres
9.429660,67316659573,-0.057191,-0.300599,-9.764450,0.000448,-0.001025,-0.000533,0.682408,0.539190,3.605281,782.09,41.70,highres
9.452901,67316677166,-0.051873,-0.313904,-9.769651,-0.000468,-0.000732,0.000518,0.682408,0.539190,3.605281,782.09,41.70,highres
9.470135,67316698102,-0.076767,-0.316703,-9.763970,-0.000826,-0.000033,0.000212,0.682408,0.539190,3.605281,782.09,41.70,highres
9.486823,67316715222,-0.083280,-0.311273,-9.770959,-0.000120,-0.000078,-0.000136,0.682408,0.539190,3.605281,782.09,41.70,highres
9.507322,67316739809,-0.081148,-0.295297,-9.771500,0.000347,-0.000766,0.000382,0.698183,0.570215,3.622792,782.09,41.70,highres
9.523443,67316762459,-0.086174,-0.301563,-9.766104,-0.001079,0.001209,-0.000093,0.698183,0.570215,3.622792,782.09,41.70,highres
9.553446,67316779962,-0.074843,-0.303321,-9.762243,0.000142,0.000003,-0.000456,0.698183,0.570215,3.622792,782.09,41.70,highres
9.569042,67316797095,-0.077328,-0.312584,-9.754909,-0.000251,-0.000426,-0.000399,0.698183,0.570215,3.622792,782.09,41.70,highres
9.587334,67316818093,-0.073527,-0.306828,-9.755756,0.000202,-0.000857,-0.000524,0.698183,0.570215,3.622792,782.09,41.70,highres
9.603855,67316837503,-0.073494,-0.297781,-9.759514,-0.000163,-0.000426,-0.000399,0.698183,0.570215,3.622792,782.09,41.70,highres
9.624525,67316862313,-0.085218,-0.287910,-9.764011,0.001015,0.000403,0.000081,0.698183,0.570215,3.622792,782.09,41.70,highres
9.653036,67316877441,-0.070322,-0.301933,-9.761202,-0.000664,0.000550,-0.000203,0.674804,0.538516,3.625744,782.09,41.70,highres
9.669458,67316899987,-0.071002,-0.301053,-9.760463,0.000333,-0.000961,0.000238,0.674804,0.538516,3.625744,782.09,41.70,highres
9.695722,67316917583,-0.060683,-0.299383,-9.768886,0.000142,-0.000033,0.000321,0.674804,0.538516,3.625744,782.09,41.70,highres
9.706760,67316937826,-0.076899,-0.303037,-9.759194,-0.000607,0.000547,0.000518,0.674804,0.538516,3.625744,782.09,41.70,highres
9.722204,67316958816,-0.069265,-0.303941,-9.773243,-0.000774,-0.000121,-0.000839,0.674804,0.538516,3.625744,782.09,41.70,highres
9.754696,67316978810,-0.068632,-0.301378,-9.763665,0.000142,-0.000574,-0.000556,0.674804,0.538516,3.625744,782.09,41.70,highres
9.769098,67316997663,-0.070320,-0.302365,-9.757464,0.000142,-0.000732,-0.000018,0.674804,0.538516,3.625744,782.09,41.70,highres
9.795676,67317018339,-0.073420,-0.307043,-9.767689,-0.000937,-0.001506,0.000070,0.684564,0.548779,3.614830,782.10,41.70,highres
9.802236,67317035561,-0.080603,-0.299539,-9.760075,0.000227,0.000881,0.000139,0.684564,0.548779,3.614830,782.10,41.70,highres
9.825012,67317055916,-0.077314,-0.305542,-9.759171,0.000191,-0.001648,0.000212,0.684564,0.548779,3.614830,782.10,41.70,highres
9.854332,67317077585,-0.084194,-0.310313,-9.760075,0.000753,-0.000732,-0.000093,0.684564,0.548779,3.614830,782.10,41.70,highres
9.870154,67317097676,-0.084731,-0.308952,-9.752812,0.000290,0.000016,0.000034,0.684564,0.548779,3.614830,782.10,41.70,highres
9.895036,67317120933,-0.084066,-0.305001,-9.754721,0.001059,0.000335,-0.000393,0.684564,0.548779,3.614830,782.10,41.70,highres
9.903324,67317140371,-0.075391,-0.310695,-9.765275,0.000371,-0.000554,0.000212,0.684564,0.548779,3.614830,782.10,41.70,highres
9.933466,67317160343,-0.080169,-0.296476,-9.765194,0.000448,0.001869,-0.000250,0.695567,0.554385,3.598735,782.10,41.70,highres
9.952584,67317178970,-0.076337,-0.303685,-9.747362,0.000118,0.000020,0.000188,0.695567,0.554385,3.598735,782.11,41.50,highres
9.969661,67317201445,-0.068611,-0.301153,-9.752871,0.000829,-0.000465,0.000708,0.695567,0.554385,3.598735,782.11,41.50,highres
9.986935,67317216360,-0.074655,-0.305204,-9.768935,-0.000906,0.000755,-0.000093,0.695567,0.554385,3.598735,782.11,41.50,highres
10.002334,67317236188,-0.073914,-0.290723,-9.758004,-0.000981,-0.000653,-0.001187,0.695567,0.554385,3.598735,782.11,41.50,highres
10.022731,67317250093,-0.067264,-0.291504,-9.752038,0.000280,0.000037,0.000233,0.695567,0.554385,3.598735,782.11,41.30,highres
10.053242,67317279905,-0.080602,-0.297024,-9.761932,-0.000597,-0.001085,0.000389,0.695567,0.554385,3.598735,782.11,41.30,highres
10.069553,67317301097,-0.073420,-0.306722,-9.768454,-0.000163,-0.001037,0.001129,0.676554,0.541773,3.628746,782.11,41.30,highres
10.094193,67317320181,-0.086880,-0.294751,-9.767258,-0.001503,-0.000931,-0.000187,0.676554,0.541773,3.628746,782.11,41.30,highres
10.102153,67317338129,-0.086071,-0.309456,-9.763139,-0.000513,0.000667,0.000125,0.676554,0.541773,3.628746,782.10,41.30,highres
10.122314,67317353592,-0.075279,-0.296327,-9.763131,-0.001690,-0.000426,-0.001315,0.676554,0.541773,3.628746,782.10,41.30,highres
10.152349,67317380799,-0.080120,-0.310385,-9.755733,-0.000669,0.000385,-0.000914,0.676554,0.541773,3.628746,782.10,41.30,highres
10.171359,67317399285,-0.071026,-0.296875,-9.769651,-0.000426,0.001217,-0.000251,0.676554,0.541773,3.628746,782.10,41.30,highres
10.186330,67317420959,-0.088150,-0.299073,-9.745343,-0.000100,-0.000609,0.000641,0.676554,0.541773,3.628746,782.10,41.30,highres
10.204784,67317438134,-0.074319,-0.295344,-9.750202,-0.000621,0.000490,-0.001698,0.678277,0.552389,3.616769,782.10,41.30,highres
10.225353,67317460772,-0.075272,-0.294644,-9.764106,0.001559,0.000601,-0.000593,0.680654,0.534187,3.614971,782.10,41.30,highres
10.255196,67317478061,-0.083581,-0.297720,-9.767870,-0.000466,-0.000275,-0.000245,0.680654,0.534187,3.614971,782.10,41.30,highres
10.270011,67317498401,-0.070459,-0.297145,-9.758605,-0.001336,-0.000919,-0.000822,0.680654,0.534187,3.614971,782.10,41.30,highres
10.285377,67317520901,-0.078853,-0.282045,-9.756210,0.000162,-0.001270,0.000464,0.680654,0.534187,3.614971,782.10,41.30,highres
10.285377,67317536751,-0.069834,-0.311502,-9.773249,-0.001077,0.000185,0.000521,0.680654,0.534187,3.614971,782.10,41.30,highres
10.325938,67317559029,-0.062499,-0.306192,-9.763622,0.000450,0.000503,0.000057,0.680654,0.534187,3.614971,782.10,41.30,highres
10.353261,67317578097,-0.070707,-0.303996,-9.760221,0.000450,0.000314,-0.000090,0.682403,0.554405,3.616778,782.10,41.30,highres
10.369438,67317598597,-0.078763,-0.299790,-9.758140,0.000450,-0.000200,-0.000395,0.692385,0.549091,3.626210,782.10,41.30,highres
10.386866,67317619343,-0.072193,-0.306749,-9.767228,-0.000612,-0.000599,0.000521,0.692385,0.549091,3.626210,782.10,41.30,highres
10.403572,67317641936,-0.077000,-0.322301,-9.768476,-0.000157,0.000642,-0.000549,0.692385,0.549091,3.626210,782.10,41.30,highres
10.433009,67317658359,-0.078213,-0.299259,-9.761812,-0.000651,-0.000426,-0.000154,0.692385,0.549091,3.626210,782.10,41.30,highres
10.453815,67317681499,-0.069751,-0.308716,-9.763197,-0.000303,0.000326,-0.000275,0.692385,0.549091,3.626210,782.10,41.30,highres
10.470181,67317696558,-0.074511,-0.304283,-9.753119,-0.000013,0.000944,0.000383,0.692385,0.549091,3.626210,782.10,41.30,highres
10.486234,67317719324,-0.083574,-0.294691,-9.761539,-0.000798,0.000583,-0.001311,0.684377,0.549220,3.618193,782.10,41.30,highres
10.503428,67317737313,-0.077859,-0.302246,-9.749695,0.000371,0.000106,0.000370,0.680814,0.537425,3.611876,782.09,41.30,highres
10.522705,67317758840,-0.071778,-0.301212,-9.763090,-0.000161,0.000308,-0.000544,0.680814,0.537425,3.611876,782.09,41.30,highres
10.553477,67317779191,-0.069834,-0.298335,-9.758884,0.000145,0.001712,0.000216,0.680814,0.537425,3.611876,782.09,41.30,highres
10.569456,67317796627,-0.061455,-0.306714,-9.762475,-0.000161,0.000490,-0.000395,0.680814,0.537425,3.611876,782.09,41.30,highres
10.587286,67317818198,-0.076533,-0.299296,-9.761997,0.000328,0.000552,0.000032,0.680814,0.537425,3.611876,782.10,41.30,highres
10.603409,67317839198,-0.074622,-0.295941,-9.760082,0.001672,-0.001037,-0.000701,0.680814,0.537425,3.611876,782.10,41.30,highres
10.624676,67317858610,-0.077704,-0.303943,-9.754473,-0.000676,-0.000217,-0.001328,0.674348,0.554271,3.620413,782.10,41.30,highres
10.652556,67317881692,-0.079798,-0.306680,-9.772472,0.000161,-0.001879,0.000431,0.688671,0.568302,3.603679,782.10,41.30,highres
10.669334,67317903237,-0.088282,-0.301291,-9.759236,0.000019,0.001083,0.000521,0.688671,0.568302,3.603679,782.09,41.30,highres
10.690833,67317918869,-0.072277,-0.309367,-9.765597,-0.000466,0.000185,0.001317,0.688671,0.568302,3.603679,782.09,41.30,highres
10.703405,67317938733,-0.082882,-0.302007,-9.762475,0.000368,0.000521,0.000827,0.688671,0.568302,3.603679,782.09,41.30,highres
10.728302,67317960449,-0.078849,-0.313410,-9.759520,-0.001383,0.000189,0.000672,0.688671,0.568302,3.603679,782.09,41.30,highres
10.752445,67317975259,-0.072212,-0.300340,-9.754515,-0.000555,-0.000642,0.000324,0.688671,0.568302,3.603679,782.09,41.30,highres
10.771027,67317989451,-0.059728,-0.307243,-9.768044,-0.001518,-0.000227,0.000656,0.680337,0.557586,3.618248,782.09,41.30,highres
10.795194,67318022841,-0.077178,-0.310480,-9.764182,0.000189,0.000446,-0.000701,0.684005,0.566318,3.614002,782.09,41.30,highres
10.802619,67318038444,-0.068705,-0.285452,-9.762545,-0.000591,-0.000641,-0.000305,0.684005,0.566318,3.614002,782.09,41.30,highres
10.823891,67318056456,-0.075819,-0.303123,-9.766066,-0.001383,-0.000426,-0.000701,0.684005,0.566318,3.614002,782.10,41.30,highres
10.853867,67318081228,-0.076880,-0.306578,-9.747938,-0.000266,-0.000331,0.000416,0.684005,0.566318,3.614002,782.10,41.30,highres
10.869191,67318099205,-0.063583,-0.289755,-9.761478,-0.000274,-0.000382,-0.000168,0.684005,0.566318,3.614002,782.10,41.30,highres
10.887085,67318121010,-0.072836,-0.298353,-9.773176,0.000445,-0.000732,0.000366,0.684005,0.566318,3.614002,782.10,41.30,highres
10.902412,67318136349,-0.079017,-0.298694,-9.770034,-0.000876,-0.000221,0.000931,0.680522,0.555738,3.609189,782.10,41.30,highres
10.922783,67318157406,-0.073698,-0.296593,-9.750541,-0.000466,-0.000732,0.000216,0.689136,0.547416,3.617156,782.10,41.30,highres
10.953831,67318174574,-0.079410,-0.309108,-9.764870,-0.000257,0.000796,0.000208,0.689136,0.547416,3.617156,782.10,41.30,highres
10.971274,67318197277,-0.066931,-0.317130,-9.766397,-0.000133,0.000199,0.000376,0.689136,0.547416,3.617156,782.10,41.30,highres
10.987562,67318218877,-0.088697,-0.304609,-9.762474,-0.000013,0.000638,-0.000206,0.689136,0.547416,3.617156,782.10,41.30,highres
11.002931,67318237390,-0.079147,-0.309245,-9.760082,0.000379,-0.000393,0.000079,0.689136,0.547416,3.617156,782.10,41.30,highres
11.028778,67318260308,-0.083343,-0.313939,-9.756147,-0.000576,0.000098,0.000827,0.689136,0.547416,3.617156,782.10,41.30,highres
11.053644,67318276620,-0.081698,-0.290727,-9.753443,-0.000392,0.000185,0.000980,0.685386,0.555241,3.612354,782.10,41.30,highres
11.072144,67318300181,-0.091381,-0.301926,-9.757688,-0.001077,-0.001037,-0.000395,0.693795,0.551164,3.592549,782.10,41.30,highres
11.087832,67318318748,-0.071716,-0.298846,-9.752037,0.000083,-0.000181,-0.001189,0.693795,0.551164,3.592549,782.10,41.30,highres
11.106675,67318338420,-0.071682,-0.293820,-9.755325,-0.000091,-0.000391,0.000285,0.693795,0.551164,3.592549,782.10,41.30,highres
11.131977,67318358272,-0.081885,-0.306075,-9.761359,-0.000015,-0.000852,-0.000115,0.693795,0.551164,3.592549,782.10,41.30,highres
11.153193,67318381590,-0.071604,-0.293226,-9.768174,0.000002,0.000409,0.000256,0.693795,0.551164,3.592549,782.10,41.30,highres
11.169289,67318398833,-0.069114,-0.298893,-9.762394,0.000856,-0.000447,-0.000274,0.693795,0.551164,3.592549,782.10,41.30,highres
11.196112,67318419365,-0.060258,-0.297138,-9.758760,0.001061,-0.000121,0.000138,0.682557,0.554083,3.623976,782.10,41.30,highres
11.204568,67318439386,-0.066064,-0.308868,-9.767262,0.001139,-0.000583,-0.000971,0.669656,0.559201,3.606714,782.10,41.30,highres
11.235977,67318462286,-0.072686,-0.302208,-9.757300,-0.000583,-0.000848,-0.000090,0.669656,0.559201,3.606714,782.10,41.30,highres
11.253683,67318479169,-0.080830,-0.311316,-9.766590,-0.001378,0.000335,0.000216,0.669656,0.559201,3.606714,782.10,41.30,highres
11.269335,67318497973,-0.078244,-0.286526,-9.764190,-0.000425,-0.000079,0.000909,0.669656,0.559201,3.606714,782.10,41.30,highres
11.283048,67318521868,-0.076731,-0.304092,-9.765838,-0.000057,-0.001648,-0.000291,0.669656,0.559201,3.606714,782.10,41.30,highres
11.283048,67318537219,-0.079381,-0.295941,-9.760695,0.000647,-0.000436,0.000961,0.669656,0.559201,3.606714,782.10,41.30,highres
11.324047,67318561943,-0.086435,-0.306025,-9.751769,0.000303,-0.001039,0.000070,0.681881,0.556675,3.609229,782.10,41.30,highres
11.353391,67318579236,-0.072516,-0.307445,-9.750552,-0.000181,0.000326,-0.000578,0.681881,0.556675,3.609229,782.10,41.30,highres
11.368517,67318599439,-0.069805,-0.312799,-9.754341,0.000287,0.000325,-0.000089,0.681881,0.556675,3.609229,782.10,41.30,highres
11.394154,67318622233,-0.074515,-0.303008,-9.760221,0.000256,0.000183,0.000341,0.681881,0.556675,3.609229,782.10,41.30,highres
11.403980,67318634288,-0.068658,-0.301925,-9.759129,-0.001383,0.000794,0.000522,0.681881,0.556675,3.609229,782.10,41.30,highres
11.423433,67318654882,-0.077597,-0.291061,-9.756814,-0.000217,0.000058,-0.000394,0.681881,0.556675,3.609229,782.10,41.30,highres
11.454199,67318679973,-0.074283,-0.297916,-9.754400,0.001168,0.000198,0.000201,0.681881,0.556675,3.609229,782.10,41.30,highres
11.470576,67318701987,-0.066904,-0.298862,-9.760883,0.000301,0.000488,-0.000089,0.679427,0.555661,3.615607,782.10,41.30,highres
11.494673,67318720255,-0.065503,-0.312209,-9.755863,0.000661,-0.000406,0.000216,0.687354,0.556894,3.617035,782.10,41.30,highres
11.505351,67318737366,-0.076519,-0.304319,-9.768028,-0.000599,-0.000255,0.000563,0.687354,0.556894,3.617035,782.10,41.30,highres
11.533488,67318757394,-0.082275,-0.302823,-9.770200,-0.000733,0.000298,-0.000318,0.687354,0.556894,3.617035,782.10,41.30,highres
11.554147,67318778642,-0.073287,-0.308069,-9.757853,-0.000018,-0.000285,-0.000863,0.687354,0.556894,3.617035,782.10,41.30,highres
11.570146,67318796034,-0.064074,-0.308524,-9.775478,0.000342,-0.000644,0.000197,0.687354,0.556894,3.617035,782.10,41.30,highres
11.587114,67318821166,-0.075258,-0.311139,-9.764642,-0.000161,-0.000122,0.000072,0.687354,0.556894,3.617035,782.10,41.30,highres
11.603728,67318841701,-0.063948,-0.299459,-9.761675,0.000011,-0.000600,-0.000967,0.684472,0.553814,3.616101,782.10,41.30,highres
11.622020,67318857184,-0.075314,-0.303677,-9.768823,-0.000317,-0.000130,-0.000543,0.681293,0.558949,3.616596,782.10,41.30,highres
11.653527,67318879216,-0.072915,-0.300674,-9.759290,0.000443,-0.000577,0.001282,0.681293,0.558949,3.616596,782.10,41.30,highres
11.669990,67318895386,-0.078565,-0.289954,-9.763452,-0.000026,0.000218,0.000657,0.681293,0.558949,3.616596,782.10,41.30,highres
11.695827,67318917390,-0.083487,-0.295740,-9.764318,-0.000262,0.001202,-0.001159,0.681293,0.558949,3.616596,782.10,41.30,highres
11.702993,67318935474,-0.073078,-0.287406,-9.763456,0.000450,-0.000507,-0.000660,0.681293,0.558949,3.616596,782.10,41.30,highres
11.725870,67318960900,-0.074243,-0.302403,-9.752306,0.000450,-0.001039,-0.000527,0.681293,0.558949,3.616596,782.10,41.30,highres
11.753813,67318978512,-0.069855,-0.295940,-9.760328,-0.000161,0.000183,-0.000394,0.685072,0.554873,3.619490,782.10,41.30,highres
11.769930,67318998429,-0.066222,-0.291823,-9.765220,0.000144,0.000183,0.000522,0.674842,0.552889,3.625486,782.10,41.30,highres
11.787915,67319018345,-0.069491,-0.299895,-9.756947,0.000059,-0.001478,-0.000261,0.674842,0.552889,3.625486,782.10,41.30,highres
11.804641,67319037610,-0.068389,-0.301925,-9.760327,-0.000105,0.000975,0.001133,0.674842,0.552889,3.625486,782.10,41.30,highres
11.823269,67319055952,-0.075701,-0.307025,-9.779341,-0.000200,0.000068,0.001018,0.674842,0.552889,3.625486,782.10,41.30,highres
11.854104,67319080497,-0.073446,-0.305516,-9.773495,-0.000466,0.001099,-0.000089,0.674842,0.552889,3.625486,782.10,41.30,highres
11.869903,67319097843,-0.078106,-0.289211,-9.757515,-0.000280,-0.000640,-0.001030,0.674842,0.552889,3.625486,782.10,41.30,highres
11.888990,67319108421,-0.073538,-0.311778,-9.753145,-0.000772,-0.000921,0.000029,0.681451,0.559346,3.617513,782.10,41.30,highres
11.905374,67319127758,-0.074563,-0.306633,-9.765033,-0.001250,0.000555,-0.000633,0.677150,0.554799,3.609999,782.10,41.30,highres
11.923309,67319152433,-0.076744,-0.310859,-9.761057,0.000433,0.000076,-0.000898,0.677150,0.554799,3.609999,782.10,41.30,highres
11.952625,67319168584,-0.081432,-0.302728,-9.763242,0.000304,-0.000122,0.000362,0.677150,0.554799,3.609999,782.10,41.30,highres
11.969994,67319187448,-0.077234,-0.305873,-9.754699,-0.000161,-0.001344,-0.001311,0.677150,0.554799,3.609999,782.10,41.30,highres
11.995668,67319213464,-0.079431,-0.301925,-9.765116,0.000325,-0.000177,-0.000214,0.677150,0.554799,3.609999,782.10,41.30,highres
12.003305,67319229222,-0.076614,-0.300728,-9.756524,-0.000325,0.000041,0.000686,0.677150,0.554799,3.609999,782.10,41.30,highres
12.025472,67319240489,-0.059887,-0.307867,-9.760349,0.000989,0.001028,-0.000700,0.685179,0.561550,3.617865,782.09,41.30,highres
12.043414,67319268093,-0.068511,-0.305712,-9.774642,0.000794,-0.001039,-0.000789,0.677847,0.552344,3.618552,782.09,41.30,highres
12.069448,67319290364,-0.073515,-0.300797,-9.755333,0.000208,0.000166,0.000280,0.677847,0.552344,3.618552,782.09,41.30,highres
12.087486,67319307916,-0.064897,-0.287861,-9.766953,-0.000478,0.001088,0.000122,0.677847,0.552344,3.618552,782.09,41.30,highres
12.104503,67319328801,-0.067061,-0.308788,-9.772137,0.000144,-0.001650,-0.001005,0.677847,0.552344,3.618552,782.09,41.30,highres
12.133038,67319350329,-0.065523,-0.303406,-9.769336,-0.000651,-0.000854,0.000337,0.677847,0.552344,3.618552,782.09,41.30,highres
12.153978,67319368139,-0.068658,-0.315093,-9.771100,0.000016,0.000893,0.000650,0.677847,0.552344,3.618552,782.09,41.30,highres
12.169895,67319390403,-0.080205,-0.296319,-9.758750,0.000396,-0.000122,0.001272,0.684801,0.554880,3.617545,782.09,41.30,highres
12.187608,67319413163,-0.077037,-0.305516,-9.753145,-0.000366,0.000085,-0.000394,0.681954,0.557430,3.613231,782.10,41.30,highres
12.203289,67319428313,-0.075752,-0.304319,-9.766167,-0.000367,-0.000293,-0.000700,0.681954,0.557430,3.613231,782.10,41.30,highres
12.222765,67319448144,-0.081825,-0.307910,-9.754341,0.000450,-0.000963,0.000649,0.681954,0.557430,3.613231,782.10,41.30,highres
12.253371,67319470478,-0.081427,-0.306447,-9.758997,-0.000772,-0.000013,-0.000060,0.681954,0.557430,3.613231,782.10,41.30,highres
12.269060,67319491086,-0.074281,-0.310317,-9.745782,-0.000313,0.000489,0.000064,0.681954,0.557430,3.613231,782.10,41.30,highres
12.287474,67319506513,-0.073207,-0.309827,-9.767028,0.000346,-0.000129,-0.001408,0.681954,0.557430,3.613231,782.10,41.30,highres
12.287474,67319520238,-0.065954,-0.296675,-9.764034,-0.000466,0.000223,0.000083,0.686389,0.555633,3.617823,782.10,41.30,highres
12.328052,67319543696,-0.062725,-0.305204,-9.751271,-0.000323,-0.000302,0.000235,0.674381,0.558456,3.624982,782.10,41.30,highres
12.353849,67319558035,-0.076329,-0.292123,-9.766243,0.000373,0.000278,-0.000538,0.674381,0.558456,3.624982,782.10,41.30,highres
12.369267,67319581360,-0.078256,-0.294721,-9.760781,0.000761,-0.000529,0.000423,0.674381,0.558456,3.624982,782.10,41.30,highres
12.386337,67319605789,-0.066277,-0.294716,-9.758387,-0.000724,0.000666,-0.000568,0.674381,0.558456,3.624982,782.10,41.30,highres
12.411774,67319618763,-0.072089,-0.296085,-9.771737,0.000452,-0.001036,-0.000698,0.674381,0.558456,3.624982,782.10,41.30,highres
12.436435,67319643704,-0.079304,-0.300611,-9.765569,0.000483,0.000560,-0.000087,0.681255,0.560103,3.620102,782.10,41.30,highres
12.454487,67319658925,-0.077939,-0.296331,-9.767759,0.000921,0.000307,-0.000677,0.672269,0.561476,3.629459,782.10,41.30,highres
12.469111,67319693618,-0.066971,-0.299509,-9.769402,0.000323,0.000232,0.000700,0.672269,0.561476,3.629459,782.10,41.30,highres
12.487598,67319718359,-0.059103,-0.306692,-9.758228,-0.000387,0.000259,0.000061,0.672269,0.561476,3.629459,782.10,41.30,highres
12.502220,67319738048,-0.080353,-0.301616,-9.764700,-0.000618,0.000261,-0.000468,0.672269,0.561476,3.629459,782.10,41.30,highres
12.533479,67319760711,-0.079662,-0.305046,-9.756204,-0.000075,-0.000616,0.000883,0.672269,0.561476,3.629459,782.10,41.30,highres
12.553713,67319779214,-0.082687,-0.300769,-9.761140,-0.000365,0.000384,0.000020,0.672269,0.561476,3.629459,782.10,41.30,highres
12.572611,67319798516,-0.078454,-0.299509,-9.760386,0.000147,-0.000567,0.000375,0.672269,0.561476,3.629459,782.10,41.30,highres
12.595052,67319820617,-0.081847,-0.307094,-9.753632,-0.000872,-0.000626,0.001135,0.679798,0.557094,3.619981,782.10,41.30,highres
12.614344,67319836306,-0.088483,-0.291026,-9.757773,0.000147,-0.000299,-0.000213,0.687506,0.546587,3.611832,782.10,41.30,highres
12.623237,67319863322,-0.071858,-0.294391,-9.759998,0.000652,-0.001142,0.000019,0.687506,0.546587,3.611832,782.10,41.30,highres
12.652669,67319876455,-0.083044,-0.301051,-9.766950,-0.000040,-0.000917,0.000167,0.687506,0.546587,3.611832,782.10,41.30,highres
12.669355,67319898911,-0.081214,-0.300266,-9.760907,0.000259,-0.000569,0.001023,0.687506,0.546587,3.611832,782.10,41.30,highres
12.687397,67319916558,-0.064766,-0.293962,-9.773513,0.000037,-0.000606,0.001981,0.687506,0.546587,3.611832,782.10,41.30,highres
12.702840,67319938141,-0.070702,-0.301532,-9.769161,0.000853,-0.000024,-0.001910,0.687506,0.546587,3.611832,782.10,41.30,highres
12.722359,67319953812,-0.071716,-0.295568,-9.777629,-0.000159,0.000487,-0.000852,0.683933,0.555646,3.616134,782.10,41.30,highres
12.754379,67319973818,-0.075947,-0.313297,-9.771642,0.000052,-0.000238,-0.001191,0.678406,0.549242,3.613551,782.10,41.30,highres
12.769718,67319996405,-0.075861,-0.315071,-9.752403,-0.000464,-0.000120,-0.000087,0.678406,0.549242,3.613551,782.10,41.30,highres
12.793657,67320019036,-0.090662,-0.310608,-9.769542,-0.000891,-0.000425,-0.000270,0.678406,0.549242,3.613551,782.10,41.30,highres
12.802542,67320033633,-0.078750,-0.300004,-9.770320,-0.000105,0.000069,0.001072,0.678406,0.549242,3.613551,782.10,41.30,highres
12.835668,67320061494,-0.072413,-0.291971,-9.761139,0.000337,0.001597,-0.000087,0.678406,0.549242,3.613551,782.10,41.30,highres
12.852847,67320076913,-0.071073,-0.294721,-9.763176,-0.001075,0.000491,-0.000392,0.687851,0.557235,3.615148,782.10,41.30,highres
12.870834,67320098918,-0.072270,-0.309086,-9.759585,0.000147,0.000796,0.000524,0.687851,0.557235,3.615148,782.10,41.30,highres
12.895568,67320120601,-0.082074,-0.302359,-9.767304,0.000282,-0.000290,0.000304,0.677478,0.549299,3.626741,782.10,41.30,highres
12.905278,67320136350,-0.077756,-0.300811,-9.772556,-0.000464,0.000717,-0.000392,0.677478,0.549299,3.626741,782.10,41.30,highres
12.922721,67320158293,-0.085132,-0.301486,-9.752097,-0.000045,-0.000425,-0.000122,0.677478,0.549299,3.626741,782.10,41.30,highres
12.954077,67320176925,-0.063169,-0.290884,-9.772514,0.000437,-0.000120,0.000516,0.677478,0.549299,3.626741,782.10,41.30,highres
12.969416,67320198552,-0.067748,-0.294721,-9.753666,0.000047,-0.000320,0.001235,0.677478,0.549299,3.626741,782.10,41.30,highres
12.987540,67320221241,-0.077794,-0.305865,-9.765759,0.000623,0.000615,0.000094,0.680747,0.563383,3.613310,782.10,41.30,highres
13.003496,67320238445,-0.074336,-0.299729,-9.760018,0.000147,0.000380,-0.000087,0.680747,0.563383,3.613310,782.10,41.30,highres
13.025786,67320258973,-0.089029,-0.306692,-9.758389,0.000452,0.001713,0.000219,0.691285,0.559940,3.603429,782.10,41.30,highres
13.054591,67320279890,-0.077580,-0.304762,-9.767134,-0.000158,-0.000270,-0.000391,0.691285,0.559940,3.603429,782.10,41.30,highres
13.070265,67320295468,-0.071994,-0.303764,-9.769715,-0.000640,-0.000332,0.000866,0.691285,0.559940,3.603429,782.10,41.30,highres
13.087704,67320316919,-0.072270,-0.301904,-9.766768,-0.000520,-0.000787,-0.000022,0.691285,0.559940,3.603429,782.10,41.30,highres
13.114604,67320337114,-0.085132,-0.309977,-9.754490,-0.001380,-0.001036,0.001440,0.691285,0.559940,3.603429,782.10,41.30,highres
13.123022,67320351567,-0.078256,-0.293745,-9.762368,-0.000338,-0.000246,-0.000572,0.685538,0.556252,3.613492,782.10,41.30,highres
13.154182,67320380191,-0.068679,-0.299509,-9.763178,0.001063,-0.000425,0.001746,0.701006,0.568223,3.602281,782.09,41.30,highres
13.170832,67320399331,-0.073440,-0.300707,-9.765334,-0.000490,-0.000704,-0.000366,0.701006,0.568223,3.602281,782.09,41.30,highres
13.187088,67320419598,-0.092341,-0.302119,-9.753248,-0.000159,0.001102,-0.000087,0.701006,0.568223,3.602281,782.09,41.30,highres
13.204105,67320438397,-0.067659,-0.300020,-9.758899,0.000452,-0.000067,-0.000950,0.701006,0.568223,3.602281,782.09,41.30,highres
13.223883,67320459122,-0.077058,-0.301904,-9.760783,-0.000159,0.000796,0.000524,0.701006,0.568223,3.602281,782.10,41.30,highres
13.253009,67320481409,-0.078578,-0.303235,-9.765800,0.000122,0.000210,-0.000205,0.701006,0.568223,3.602281,782.10,41.30,highres
13.270459,67320499377,-0.075565,-0.310781,-9.761925,0.000600,-0.000077,0.000524,0.701006,0.568223,3.602281,782.10,41.30,highres
13.286728,67320519272,-0.063461,-0.292140,-9.764281,0.000183,-0.000181,-0.001235,0.690406,0.569831,3.617781,782.10,41.30,highres
13.286728,67320534398,-0.070669,-0.305754,-9.770359,-0.000170,-0.000425,-0.000392,0.690406,0.569831,3.617781,782.10,41.30,highres
13.326974,67320550103,-0.074664,-0.307304,-9.763204,-0.000505,-0.000080,-0.001451,0.690406,0.569831,3.617781,782.10,41.30,highres
13.354248,67320572089,-0.082410,-0.290078,-9.765887,-0.000581,0.000003,0.000457,0.690406,0.569831,3.617781,782.10,41.30,highres
13.372038,67320589770,-0.067533,-0.311454,-9.756481,-0.000251,-0.000116,-0.000297,0.690406,0.569831,3.617781,782.10,41.30,highres
13.390379,67320611583,-0.077826,-0.302288,-9.758875,-0.000585,-0.001063,-0.000819,0.690406,0.569831,3.617781,782.09,41.30,highres
13.409288,67320629423,-0.070795,-0.310363,-9.767044,-0.000157,0.000286,-0.000118,0.690406,0.569831,3.617781,782.09,41.30,highres
13.422532,67320647689,-0.072812,-0.307093,-9.767107,0.000759,-0.000727,-0.000391,0.687712,0.548871,3.622248,782.09,41.30,highres
13.453518,67320679287,-0.086188,-0.297199,-9.762965,0.000461,0.000339,-0.000540,0.687712,0.548871,3.622248,782.09,41.30,highres
13.470260,67320697061,-0.083837,-0.299029,-9.761465,-0.000355,0.000116,-0.000069,0.687712,0.548871,3.622248,782.09,41.30,highres
13.488064,67320716881,-0.082953,-0.296949,-9.757397,-0.000462,-0.000085,-0.000201,0.687712,0.548871,3.622248,782.09,41.30,highres
13.503808,67320739678,-0.074639,-0.300383,-9.752517,0.000373,0.000688,-0.000055,0.687712,0.548871,3.622248,782.09,41.30,highres
13.525353,67320756805,-0.061973,-0.297089,-9.766058,0.000260,0.000189,0.001554,0.687712,0.548871,3.622248,782.09,41.30,highres
13.553449,67320778036,-0.073967,-0.293399,-9.764313,-0.000462,0.001411,0.000525,0.687712,0.548871,3.622248,782.09,41.30,highres
13.568762,67320800101,-0.065727,-0.293518,-9.761936,0.000299,-0.000277,-0.000546,0.674426,0.559257,3.625004,782.09,41.30,highres
13.593017,67320817587,-0.073992,-0.302148,-9.763190,0.000149,-0.000382,-0.001307,0.674426,0.559257,3.625004,782.09,41.30,highres
13.603125,67320839737,-0.074224,-0.298921,-9.768238,-0.000179,0.000358,-0.000233,0.674426,0.559257,3.625004,782.09,41.30,highres
13.634289,67320859917,-0.070638,-0.305469,-9.762467,0.001103,-0.000288,0.000306,0.674426,0.559257,3.625004,782.10,41.30,highres
13.653336,67320882179,-0.073392,-0.303830,-9.774375,0.000363,0.000463,-0.000359,0.674426,0.559257,3.625004,782.10,41.30,highres
13.673362,67320899231,-0.080916,-0.306247,-9.765005,-0.000462,0.000602,-0.000516,0.674426,0.559257,3.625004,782.10,41.30,highres
13.687506,67320919587,-0.065978,-0.311454,-9.776312,-0.000727,-0.001114,0.000699,0.685948,0.554388,3.614552,782.10,41.30,highres
13.708671,67320939509,-0.078654,-0.303146,-9.771409,-0.000157,-0.000269,0.001136,0.694023,0.579657,3.614322,782.10,41.30,highres
13.723111,67320957036,-0.073558,-0.303595,-9.769679,0.000454,0.000150,-0.000218,0.694023,0.579657,3.614322,782.10,41.30,highres
13.753084,67320977513,-0.079409,-0.294249,-9.768006,0.000149,-0.000422,0.000831,0.694023,0.579657,3.614322,782.10,41.30,highres
13.769172,67320992220,-0.077344,-0.298986,-9.748110,0.000281,-0.000249,-0.000298,0.694023,0.579657,3.614322,782.10,41.30,highres
13.787042,67321007005,-0.067719,-0.301878,-9.760710,0.000759,-0.001338,0.000525,0.694023,0.579657,3.614322,782.10,41.30,highres
13.804460,67321029830,-0.071289,-0.297007,-9.755675,0.000149,0.000189,-0.000085,0.694023,0.579657,3.614322,782.10,41.30,highres
13.824285,67321045829,-0.079088,-0.303953,-9.754869,-0.001101,-0.000144,0.000074,0.694023,0.579657,3.614322,782.10,41.30,highres
13.853896,67321063206,-0.077109,-0.298286,-9.763664,0.000152,0.000803,-0.000237,0.681376,0.545249,3.628021,782.10,41.30,highres
13.871539,67321102094,-0.077399,-0.305054,-9.768452,-0.000926,0.001032,0.000220,0.681376,0.545249,3.628021,782.10,41.30,highres
13.886812,67321122047,-0.068860,-0.304450,-9.758544,0.000063,-0.000291,-0.000261,0.681376,0.545249,3.628021,782.10,41.30,highres
13.904735,67321142369,-0.074609,-0.305029,-9.771384,0.000009,-0.000588,0.001415,0.681376,0.545249,3.628021,782.10,41.30,highres
13.922524,67321158025,-0.085868,-0.301753,-9.764170,-0.000494,0.000174,0.000059,0.681376,0.545249,3.628021,782.10,41.30,highres
13.954963,67321180218,-0.084811,-0.293973,-9.764026,0.000149,0.000189,-0.000085,0.681376,0.545249,3.628021,782.10,41.30,highres
13.969761,67321190147,-0.080815,-0.312366,-9.750781,0.000320,-0.000498,0.000258,0.681376,0.545249,3.628021,782.10,41.30,highres
13.994836,67321219926,-0.076868,-0.311850,-9.767816,0.000149,-0.000422,-0.001002,0.694865,0.566903,3.616878,782.10,41.30,highres
14.003884,67321240247,-0.075761,-0.304422,-9.760559,-0.000373,0.001661,-0.000158,0.694865,0.566903,3.616878,782.10,41.30,highres
14.024865,67321257715,-0.068730,-0.298668,-9.759547,-0.000638,0.000014,0.001136,0.694865,0.566903,3.616878,782.09,41.30,highres
14.054166,67321282394,-0.071124,-0.313848,-9.760074,0.000436,-0.000278,0.000831,0.694865,0.566903,3.616878,782.09,41.30,highres
14.071666,67321302524,-0.071283,-0.294895,-9.761269,-0.000636,0.000759,-0.001439,0.694865,0.566903,3.616878,782.09,41.30,highres
14.087968,67321317882,-0.075912,-0.301878,-9.768452,0.000454,-0.000116,-0.000391,0.694865,0.566903,3.616878,782.09,41.30,highres
14.112375,67321337457,-0.077342,-0.294895,-9.766059,-0.000428,-0.000308,-0.000278,0.694865,0.566903,3.616878,782.10,41.30,highres
14.123633,67321358479,-0.070444,-0.297197,-9.777618,0.000603,0.000651,0.000377,0.682063,0.559877,3.609318,782.10,41.30,highres
14.154179,67321382470,-0.067159,-0.300591,-9.767256,-0.001079,0.000320,-0.000559,0.682063,0.559877,3.609318,782.10,41.30,highres
14.169097,67321403492,-0.068730,-0.297089,-9.761271,0.000527,0.000538,-0.000275,0.682063,0.559877,3.609318,782.10,41.30,highres
14.193069,67321417108,-0.069927,-0.305469,-9.760073,0.000759,0.001106,-0.000696,0.682063,0.559877,3.609318,782.11,41.30,highres
14.204388,67321439759,-0.071124,-0.303075,-9.756481,-0.000462,-0.001032,-0.000391,0.682063,0.559877,3.609318,782.11,41.30,highres
14.223956,67321462524,-0.083094,-0.301425,-9.760398,-0.001215,-0.000258,-0.000391,0.682063,0.559877,3.609318,782.11,41.30,highres
14.253483,67321476043,-0.081049,-0.303285,-9.769721,0.000077,0.000549,0.000094,0.682063,0.559877,3.609318,782.11,41.30,highres
14.270447,67321498132,-0.077709,-0.308460,-9.759681,-0.000819,0.000648,0.000373,0.696278,0.565466,3.610193,782.11,41.30,highres
14.288322,67321522628,-0.077998,-0.303964,-9.760655,-0.000005,0.000039,0.000676,0.696278,0.565466,3.610193,782.11,41.30,highres
14.288322,67321537544,-0.063575,-0.311378,-9.771483,0.000293,0.000987,-0.000204,0.696278,0.565466,3.610193,782.11,41.30,highres
14.328977,67321558151,-0.074647,-0.293138,-9.748599,0.000004,0.000206,0.000076,0.696278,0.565466,3.610193,782.11,41.30,highres
14.352806,67321582862,-0.068966,-0.309052,-9.755291,-0.000279,0.000372,0.000465,0.696278,0.565466,3.610193,782.10,41.30,highres
14.370095,67321597580,-0.071281,-0.296450,-9.758026,0.000342,-0.000342,0.000107,0.696278,0.565466,3.610193,782.10,41.30,highres
14.387557,67321613130,-0.074232,-0.297186,-9.758773,0.001002,0.000432,-0.000270,0.696278,0.565466,3.610193,782.10,41.30,highres
14.404224,67321637601,-0.068760,-0.300670,-9.760547,0.000220,-0.001149,-0.000273,0.684869,0.553528,3.619741,782.10,41.30,highres
14.427653,67321655932,-0.075254,-0.303244,-9.764318,0.000258,-0.001426,-0.000066,0.684869,0.553528,3.619741,782.10,41.30,highres
14.453341,67321681065,-0.074359,-0.294402,-9.762659,0.000284,0.000397,-0.000122,0.684869,0.553528,3.619741,782.10,41.30,highres
14.473876,67321700378,-0.075691,-0.299473,-9.764877,-0.000200,-0.000682,-0.000858,0.684869,0.553528,3.619741,782.10,41.30,highres
14.496294,67321720738,-0.077349,-0.304192,-9.766113,0.000270,0.000441,0.000526,0.684869,0.553528,3.619741,782.10,41.30,highres
14.510615,67321743243,-0.073048,-0.298670,-9.762246,0.000022,0.000012,-0.000874,0.684869,0.553528,3.619741,782.10,41.30,highres
14.524907,67321757594,-0.087163,-0.294614,-9.764068,0.000072,-0.000421,-0.000391,0.684869,0.553528,3.619741,782.10,41.30,highres
14.552222,67321779054,-0.078337,-0.301868,-9.760547,-0.000156,0.001106,0.000526,0.665960,0.547756,3.611720,782.10,41.30,highres
14.569465,67321800470,-0.078211,-0.298466,-9.762437,0.000279,0.000848,-0.000262,0.665960,0.547756,3.611720,782.10,41.30,highres
14.588542,67321822759,-0.078488,-0.295661,-9.765556,-0.000801,-0.000116,-0.000696,0.665960,0.547756,3.611720,782.09,41.30,highres
14.604419,67321840236,-0.079932,-0.299872,-9.766931,-0.000724,-0.000161,0.000831,0.665960,0.547756,3.611720,782.09,41.30,highres
14.632106,67321858407,-0.067939,-0.297969,-9.761577,0.001388,-0.001128,0.001040,0.665960,0.547756,3.611720,782.09,41.30,highres
14.653438,67321876361,-0.083125,-0.297782,-9.765335,0.000392,-0.000116,0.000589,0.665960,0.547756,3.611720,782.09,41.30,highres
14.670291,67321897885,-0.067563,-0.311444,-9.761744,-0.001377,-0.000116,0.000526,0.665960,0.547756,3.611720,782.08,41.30,highres
14.687603,67321917916,-0.068133,-0.306713,-9.762372,0.000150,-0.000740,-0.000855,0.693562,0.544542,3.611475,782.08,41.30,highres
14.704806,67321937979,-0.071819,-0.293490,-9.765470,-0.000088,-0.001066,-0.000662,0.693562,0.544542,3.611475,782.08,41.30,highres
14.722250,67321958940,-0.074551,-0.305167,-9.773358,-0.000513,0.000242,-0.000645,0.693562,0.544542,3.611475,782.08,41.30,highres
14.753534,67321972740,-0.082603,-0.304996,-9.763368,-0.000602,0.000190,0.000548,0.693562,0.544542,3.611475,782.08,41.30,highres
14.768922,67322003667,-0.078171,-0.300592,-9.766454,-0.000298,-0.000747,-0.000085,0.693562,0.544542,3.611475,782.08,41.30,highres
14.787772,67322016764,-0.083522,-0.302275,-9.763338,-0.000657,0.000865,0.000024,0.693562,0.544542,3.611475,782.08,41.30,highres
14.804384,67322041093,-0.065632,-0.294414,-9.766724,0.000761,0.000475,0.000969,0.693562,0.544542,3.611475,782.08,41.30,highres
14.833317,67322056662,-0.076134,-0.306656,-9.768805,-0.000766,-0.001032,-0.000085,0.682011,0.556457,3.628334,782.08,41.30,highres
14.852754,67322073554,-0.078428,-0.306839,-9.764506,-0.000521,-0.000237,-0.000269,0.682011,0.556457,3.628334,782.08,41.30,highres
14.870226,67322096818,-0.079431,-0.305301,-9.758208,0.000150,0.001339,-0.000063,0.682011,0.556457,3.628334,782.08,41.30,highres
14.886659,67322114506,-0.075906,-0.309749,-9.762516,-0.001038,0.000698,-0.000085,0.682011,0.556457,3.628334,782.08,41.30,highres
14.904176,67322131830,-0.074105,-0.300308,-9.763860,0.000952,0.001106,-0.000355,0.682011,0.556457,3.628334,782.08,41.30,highres
14.923188,67322153354,-0.081928,-0.304262,-9.770123,0.000761,0.000964,0.000240,0.682011,0.556457,3.628334,782.08,41.30,highres
14.954000,67322176410,-0.081626,-0.308457,-9.764836,-0.000573,0.001010,0.000429,0.682011,0.556457,3.628334,782.08,41.30,highres
14.968911,67322196154,-0.078186,-0.308449,-9.752467,0.000761,-0.000865,-0.000030,0.687930,0.553765,3.614421,782.08,41.30,highres
14.987463,67322211780,-0.062904,-0.300310,-9.760778,0.000515,0.000005,-0.000085,0.687930,0.553765,3.614421,782.09,41.30,highres
15.003236,67322233661,-0.069322,-0.305141,-9.760230,0.000051,-0.000528,0.000121,0.687930,0.553765,3.614421,782.09,41.30,highres
15.022673,67322257379,-0.067733,-0.307164,-9.752684,-0.000156,-0.000139,0.000667,0.687930,0.553765,3.614421,782.09,41.30,highres
15.053361,67322278250,-0.069957,-0.289897,-9.762941,0.000150,0.000190,-0.000085,0.687930,0.553765,3.614421,782.09,41.30,highres
15.069153,67322296763,-0.079941,-0.304780,-9.767199,-0.000311,0.000345,0.000226,0.687930,0.553765,3.614421,782.09,41.30,highres
15.087017,67322318622,-0.072351,-0.291094,-9.768927,0.000543,-0.000137,-0.000128,0.687930,0.553765,3.614421,782.09,41.30,highres
15.103441,67322338288,-0.082116,-0.313000,-9.771047,0.000385,-0.000373,0.000220,0.673305,0.568972,3.608031,782.09,41.30,highres
15.136327,67322351113,-0.088791,-0.301350,-9.759910,-0.000236,-0.000549,-0.000439,0.673305,0.568972,3.608031,782.09,41.30,highres
15.152685,67322377606,-0.078636,-0.315634,-9.771095,-0.000327,-0.000154,-0.000219,0.673305,0.568972,3.608031,782.09,41.30,highres
15.170185,67322401490,-0.073548,-0.304262,-9.766533,0.000578,0.000253,0.000403,0.673305,0.568972,3.608031,782.09,41.30,highres
15.186267,67322418250,-0.077670,-0.300404,-9.762011,0.000319,-0.000183,0.000763,0.673305,0.568972,3.608031,782.09,41.30,highres
15.205200,67322438790,-0.081802,-0.305449,-9.762545,0.000014,-0.000150,-0.000356,0.673305,0.568972,3.608031,782.09,41.30,highres
15.223322,67322458454,-0.078419,-0.303229,-9.768680,-0.000461,0.000190,0.000220,0.673305,0.568972,3.608031,782.09,41.30,highres
15.253263,67322468451,-0.081818,-0.293126,-9.751079,0.000761,-0.000686,0.000261,0.689028,0.547597,3.601235,782.09,41.30,highres
15.269004,67322486126,-0.064919,-0.293688,-9.755559,-0.000303,0.000643,0.000683,0.689028,0.547597,3.601235,782.09,41.30,highres
15.289717,67322514128,-0.080131,-0.300073,-9.759645,0.000924,0.000922,0.000241,0.689028,0.547597,3.601235,782.09,41.30,highres
15.298208,67322531388,-0.082601,-0.302465,-9.761370,0.000078,0.000962,0.000903,0.689028,0.547597,3.601235,782.09,41.30,highres
15.298208,67322549838,-0.063619,-0.296588,-9.767377,0.000761,-0.000116,0.000220,0.689028,0.547597,3.601235,782.09,41.30,highres
15.353777,67322578682,-0.083370,-0.300732,-9.772272,-0.000853,-0.000288,-0.000085,0.689028,0.547597,3.601235,782.09,41.30,highres
15.372414,67322593964,-0.077747,-0.297877,-9.770703,-0.000459,-0.000419,-0.000083,0.689028,0.547597,3.601235,782.09,41.30,highres
15.387174,67322621565,-0.077258,-0.303004,-9.767045,-0.000773,-0.000088,-0.000380,0.688196,0.560333,3.600271,782.09,41.30,highres
15.411426,67322637653,-0.077248,-0.307770,-9.764884,-0.000604,0.000525,0.000222,0.688196,0.560333,3.600271,782.09,41.30,highres
15.423118,67322658591,-0.075673,-0.298940,-9.768170,-0.001116,-0.000066,-0.000001,0.688196,0.560333,3.600271,782.09,41.30,highres
15.453391,67322677280,-0.076965,-0.303284,-9.762324,0.000483,0.000718,0.000612,0.688196,0.560333,3.600271,782.09,41.30,highres
15.473229,67322699682,-0.083833,-0.305363,-9.767789,-0.000315,-0.000730,-0.000239,0.688196,0.560333,3.600271,782.10,41.30,highres
15.487020,67322721274,-0.063390,-0.306635,-9.766491,-0.000764,-0.000363,-0.000278,0.688196,0.560333,3.600271,782.10,41.30,highres
15.502666,67322738442,-0.078634,-0.302561,-9.755641,-0.000530,-0.000419,0.000087,0.688196,0.560333,3.600271,782.10,41.30,highres
15.523338,67322758863,-0.083178,-0.301938,-9.762769,0.000601,-0.000276,0.000384,0.673359,0.568881,3.615991,782.10,41.30,highres
15.553933,67322778741,-0.085189,-0.313824,-9.762318,0.000907,0.000803,0.000608,0.673359,0.568881,3.615991,782.10,41.30,highres
15.570195,67322800199,-0.076674,-0.297763,-9.754041,0.000244,-0.001289,-0.000435,0.673359,0.568881,3.615991,782.10,41.30,highres
15.594261,67322814983,-0.080010,-0.292052,-9.762606,-0.000459,-0.000419,-0.000389,0.673359,0.568881,3.615991,782.10,41.30,highres
15.611463,67322831201,-0.069289,-0.295625,-9.771556,-0.000102,0.000073,0.000103,0.673359,0.568881,3.615991,782.10,41.30,highres
15.622683,67322851596,-0.064815,-0.300285,-9.750340,0.000010,-0.000746,-0.000083,0.673359,0.568881,3.615991,782.10,41.30,highres
15.653821,67322867795,-0.073051,-0.300004,-9.762234,-0.000764,0.000340,-0.000241,0.673359,0.568881,3.615991,782.10,41.30,highres
15.669586,67322888918,-0.074553,-0.290784,-9.763343,-0.001069,-0.000864,0.000610,0.685072,0.556694,3.623015,782.10,41.30,highres
15.695778,67322907580,-0.074828,-0.293461,-9.763111,0.000005,-0.000103,-0.000083,0.685072,0.556694,3.623015,782.10,41.30,highres
15.704294,67322932112,-0.072404,-0.304234,-9.762323,0.000458,-0.000113,-0.000591,0.685072,0.556694,3.623015,782.11,41.30,highres
15.723774,67322942180,-0.074686,-0.300643,-9.763410,-0.000153,0.000803,-0.000083,0.685072,0.556694,3.623015,782.11,41.30,highres
15.754109,67322971492,-0.065913,-0.301840,-9.767297,0.000152,-0.000277,-0.000552,0.685072,0.556694,3.623015,782.11,41.30,highres
15.769877,67322987419,-0.083349,-0.309365,-9.760784,0.000655,0.000251,0.000084,0.685072,0.556694,3.623015,782.11,41.30,highres
15.794108,67323022049,-0.084375,-0.313511,-9.764568,-0.000879,-0.000381,0.000031,0.685072,0.556694,3.623015,782.11,41.30,highres
15.804166,67323037797,-0.086358,-0.299736,-9.747959,0.000100,0.000318,0.001012,0.668690,0.541534,3.610999,782.11,41.30,highres
15.823755,67323064417,-0.066056,-0.313310,-9.774323,0.000619,0.000192,-0.000389,0.668690,0.541534,3.610999,782.11,41.30,highres
15.851822,67323082192,-0.077136,-0.313346,-9.762013,0.000630,-0.000764,0.000394,0.668690,0.541534,3.610999,782.11,41.30,highres
15.869896,67323097714,-0.071207,-0.292264,-9.762324,0.001069,0.001719,-0.000389,0.668690,0.541534,3.610999,782.10,41.30,highres
15.895838,67323119136,-0.073221,-0.288237,-9.769180,-0.001493,0.000329,0.000833,0.668690,0.541534,3.610999,782.10,41.30,highres
15.905429,67323140804,-0.075995,-0.291067,-9.764718,0.000989,-0.000259,-0.000003,0.668690,0.541534,3.610999,782.10,41.30,highres
15.922656,67323157206,-0.084371,-0.303830,-9.760320,0.000253,0.001108,0.000324,0.668690,0.541534,3.610999,782.10,41.30,highres
15.953397,67323181778,-0.072902,-0.299067,-9.761565,0.000554,-0.000307,0.000125,0.677498,0.559476,3.621277,782.10,41.15,highres
15.970982,67323192659,-0.076787,-0.304234,-9.762915,0.000385,-0.001729,0.000062,0.677498,0.559476,3.621277,782.10,41.15,highres
15.997162,67323212445,-0.065222,-0.299643,-9.758986,-0.000938,-0.000982,0.000396,0.677498,0.559476,3.621277,782.10,41.15,highres
16.003108,67323232097,-0.064814,-0.304208,-9.771873,-0.000333,0.000192,0.000167,0.677498,0.559476,3.621277,782.10,41.15,highres
16.024674,67323241917,-0.080093,-0.297742,-9.771070,-0.000230,0.000283,0.000252,0.677498,0.559476,3.621277,782.09,41.00,highres
16.052456,67323279375,-0.076460,-0.306589,-9.763601,0.000664,0.001012,-0.000387,0.677498,0.559476,3.621277,782.09,41.00,highres
16.070460,67323297827,-0.076883,-0.302844,-9.764524,-0.000154,-0.001182,-0.000694,0.677498,0.559476,3.621277,782.09,41.00,highres
16.087035,67323314608,-0.078903,-0.297991,-9.757278,0.000152,-0.000114,0.001138,0.689414,0.550455,3.631574,782.09,41.00,highres
16.110477,67323337028,-0.080783,-0.300643,-9.759932,0.000288,-0.000504,-0.000610,0.689414,0.550455,3.631574,782.09,41.00,highres
16.123022,67323354555,-0.070010,-0.297125,-9.753309,0.000152,0.000354,-0.000102,0.689414,0.550455,3.631574,782.09,41.00,highres
16.153664,67323377343,-0.085960,-0.302977,-9.751311,0.000152,-0.000449,-0.000389,0.689414,0.550455,3.631574,782.09,41.00,highres
16.173791,67323397003,-0.083681,-0.300330,-9.767176,-0.000153,0.000192,-0.000694,0.689414,0.550455,3.631574,782.09,41.00,highres
16.186820,67323420314,-0.073601,-0.304234,-9.759930,0.000899,0.000395,-0.000558,0.689414,0.550455,3.631574,782.09,41.00,highres
16.212190,67323437350,-0.067236,-0.297723,-9.758004,-0.001106,-0.000358,0.000014,0.689414,0.550455,3.631574,782.09,41.00,highres
16.222679,67323460115,-0.074131,-0.292264,-9.769094,0.001033,0.000973,0.000663,0.677059,0.553198,3.609954,782.09,41.00,highres
16.254084,67323476967,-0.073223,-0.297006,-9.768293,-0.000354,-0.001030,-0.001920,0.677059,0.553198,3.609954,782.09,41.00,highres
16.269205,67323501770,-0.075995,-0.300947,-9.757874,0.000991,-0.000496,0.000299,0.677059,0.553198,3.609954,782.10,41.00,highres
16.287013,67323517157,-0.072699,-0.300132,-9.768996,-0.000059,0.001414,0.000927,0.677059,0.553198,3.609954,782.10,41.00,highres
16.302650,67323536786,-0.069603,-0.298199,-9.773146,0.000016,0.000379,-0.000355,0.677059,0.553198,3.609954,782.10,41.00,highres
16.302650,67323557099,-0.083174,-0.308227,-9.767509,-0.001069,-0.000623,-0.000185,0.677059,0.553198,3.609954,782.10,41.00,highres
16.353034,67323581041,-0.065222,-0.293223,-9.757776,0.001252,0.000437,0.000100,0.676581,0.563046,3.621793,782.11,41.00,highres
16.370543,67323600281,-0.066357,-0.299814,-9.767468,-0.001679,-0.000688,-0.000561,0.684850,0.554438,3.610211,782.11,41.00,highres
16.396182,67323619764,-0.074376,-0.304920,-9.756291,0.000764,-0.001336,0.000527,0.684850,0.554438,3.610211,782.11,41.00,highres
16.403985,67323637509,-0.080815,-0.311773,-9.767642,-0.000457,0.000192,-0.001306,0.684850,0.554438,3.610211,782.11,41.00,highres
16.424924,67323656022,-0.076174,-0.311955,-9.773799,-0.000248,0.000058,-0.000561,0.684850,0.554438,3.610211,782.10,41.00,highres
16.454886,67323672350,-0.080815,-0.305417,-9.759141,0.000607,0.000340,0.000535,0.684850,0.554438,3.610211,782.10,41.00,highres
16.470068,67323689990,-0.083830,-0.298723,-9.769159,-0.000227,-0.000114,-0.000274,0.684850,0.554438,3.610211,782.10,41.00,highres
16.488480,67323710627,-0.075071,-0.306374,-9.765842,-0.000457,0.000322,-0.000565,0.686894,0.552038,3.609224,782.10,41.00,highres
16.503597,67323733602,-0.082827,-0.303443,-9.769135,-0.000152,-0.001641,-0.000084,0.681335,0.546195,3.615306,782.09,41.00,highres
16.522588,67323751323,-0.072226,-0.300419,-9.762585,0.000646,0.000320,-0.000143,0.681335,0.546195,3.615306,782.09,41.00,highres
16.553259,67323770057,-0.086539,-0.297872,-9.762314,-0.000345,-0.000129,0.000445,0.681335,0.546195,3.615306,782.09,41.00,highres
16.569879,67323797579,-0.077224,-0.298235,-9.768716,-0.000859,0.000787,-0.000084,0.681335,0.546195,3.615306,782.09,41.00,highres
16.593922,67323813532,-0.071239,-0.292250,-9.771110,-0.000552,0.000097,0.001032,0.681335,0.546195,3.615306,782.10,41.00,highres
16.604215,67323838517,-0.073633,-0.300629,-9.777094,-0.000123,0.001403,-0.000695,0.681335,0.546195,3.615306,782.10,41.00,highres
16.622885,67323856452,-0.078104,-0.297313,-9.762891,0.000500,0.000059,0.001005,0.679654,0.554999,3.616472,782.10,41.00,highres
16.652653,67323877873,-0.094527,-0.308818,-9.763002,-0.000409,0.001205,-0.000883,0.700145,0.551257,3.615344,782.10,41.00,highres
16.671918,67323899966,-0.077180,-0.309460,-9.759590,-0.000628,0.000632,0.000930,0.700145,0.551257,3.615344,782.10,41.00,highres
16.686972,67323920716,-0.082601,-0.309009,-9.760336,0.000140,0.000718,0.001164,0.700145,0.551257,3.615344,782.10,41.00,highres
16.703752,67323937449,-0.080443,-0.304043,-9.764575,0.000224,-0.000349,-0.000250,0.700145,0.551257,3.615344,782.10,41.00,highres
16.722840,67323952793,-0.076667,-0.297133,-9.769913,0.000273,-0.000181,-0.000814,0.700145,0.551257,3.615344,782.10,41.00,highres
16.754640,67323975571,-0.078421,-0.300629,-9.766322,-0.000026,-0.000599,-0.001001,0.700145,0.551257,3.615344,782.09,41.00,highres
16.769212,67323997654,-0.065254,-0.286265,-9.757942,-0.000365,0.000085,0.000633,0.684876,0.553370,3.621860,782.09,41.00,highres
16.795258,67324015836,-0.070986,-0.304220,-9.771111,0.000940,-0.000534,-0.001611,0.678140,0.544429,3.614213,782.09,41.00,highres
16.804007,67324040580,-0.077676,-0.298268,-9.758913,-0.000097,-0.001281,0.000167,0.678140,0.544429,3.614213,782.09,41.00,highres
16.824241,67324056410,-0.077939,-0.303583,-9.763119,-0.000029,0.000354,-0.000409,0.678140,0.544429,3.614213,782.10,41.00,highres
16.853803,67324075760,-0.079618,-0.309009,-9.757943,-0.000457,-0.000419,-0.000390,0.678140,0.544429,3.614213,782.10,41.00,highres
16.868698,67324101534,-0.079361,-0.302296,-9.764398,0.000285,0.000563,0.001748,0.678140,0.544429,3.614213,782.10,41.00,highres
16.886993,67324119196,-0.073024,-0.309501,-9.767224,0.000038,0.000042,-0.000084,0.678140,0.544429,3.614213,782.10,41.00,highres
16.902240,67324137801,-0.079618,-0.304220,-9.772306,0.001070,0.001413,0.001137,0.677487,0.553006,3.617047,782.09,41.00,highres
16.922611,67324157714,-0.077534,-0.306171,-9.758965,-0.000457,-0.000419,0.000527,0.683088,0.548570,3.625451,782.09,41.00,highres
16.953474,67324182979,-0.079888,-0.301016,-9.764622,-0.000152,0.000123,-0.000390,0.683088,0.548570,3.625451,782.09,41.00,highres
16.969199,67324198012,-0.077224,-0.294756,-9.770527,0.000764,0.000497,-0.000695,0.683088,0.548570,3.625451,782.09,41.00,highres
16.994731,67324213232,-0.081606,-0.303859,-9.767925,-0.000763,-0.000587,-0.000084,0.683088,0.548570,3.625451,782.09,41.00,highres
17.012083,67324233168,-0.074830,-0.304220,-9.762731,0.000154,-0.000114,0.000221,0.683088,0.548570,3.625451,782.09,41.00,highres
17.022280,67324253722,-0.072902,-0.292822,-9.760856,0.001375,-0.000114,-0.000084,0.683088,0.548570,3.625451,782.09,41.00,highres
17.053660,67324273579,-0.086437,-0.308581,-9.763950,0.000459,0.000279,-0.000739,0.686037,0.549648,3.615931,782.09,41.00,highres
17.069213,67324288466,-0.076353,-0.304656,-9.761752,-0.000763,-0.000419,0.001443,0.678463,0.550024,3.615165,782.10,41.00,highres
17.086886,67324313217,-0.078562,-0.297724,-9.747205,-0.000291,0.000469,0.000665,0.678463,0.550024,3.615165,782.10,41.00,highres
17.103690,67324338129,-0.072436,-0.291053,-9.762732,-0.000152,0.000802,0.000221,0.678463,0.550024,3.615165,782.10,41.00,highres
17.123326,67324361069,-0.068413,-0.291759,-9.757020,0.000228,0.001149,-0.000349,0.678463,0.550024,3.615165,782.10,41.00,highres
17.149071,67324376415,-0.074781,-0.299627,-9.752726,0.000911,0.000167,-0.001001,0.678463,0.550024,3.615165,782.10,41.00,highres
17.169328,67324401448,-0.067648,-0.301826,-9.769914,-0.000102,0.000369,-0.001050,0.678463,0.550024,3.615165,782.10,41.00,highres
17.187819,67324420624,-0.075026,-0.303720,-9.772612,0.000026,-0.000164,-0.000007,0.681366,0.555474,3.618311,782.10,41.00,highres
17.204511,67324438402,-0.074546,-0.307071,-9.761536,0.000274,0.000617,-0.000390,0.666515,0.557344,3.613580,782.10,41.00,highres
17.223188,67324457809,-0.082012,-0.300629,-9.765123,0.000459,0.001495,0.000527,0.666515,0.557344,3.613580,782.09,41.00,highres
17.252994,67324476940,-0.068845,-0.301489,-9.771971,-0.000327,0.000148,0.001487,0.666515,0.557344,3.613580,782.09,41.00,highres
17.269470,67324499549,-0.085871,-0.301558,-9.771608,0.000120,0.000641,-0.000084,0.666515,0.557344,3.613580,782.09,41.00,highres
17.286949,67324513906,-0.079072,-0.301280,-9.768496,0.000125,0.000745,0.000498,0.666515,0.557344,3.613580,782.09,41.00,highres
17.302657,67324534831,-0.076027,-0.310206,-9.754352,0.000285,0.001502,0.001050,0.666515,0.557344,3.613580,782.09,41.00,highres
17.302657,67324553958,-0.081191,-0.301450,-9.759138,0.000154,0.000497,-0.000084,0.683679,0.555039,3.621206,782.09,41.00,highres
17.352296,67324570720,-0.074550,-0.304500,-9.750582,0.000786,0.000944,-0.001022,0.677849,0.553217,3.612206,782.09,41.00,highres
17.368850,67324593998,-0.068845,-0.297038,-9.749563,-0.000457,0.000802,-0.000390,0.677849,0.553217,3.612206,782.09,41.00,highres
17.394458,67324613986,-0.063966,-0.290529,-9.756854,0.000117,-0.000257,-0.000264,0.677849,0.553217,3.612206,782.10,41.00,highres
17.403071,67324634003,-0.082316,-0.303502,-9.764686,0.000889,-0.000205,0.000618,0.677849,0.553217,3.612206,782.10,41.00,highres
17.423225,67324661801,-0.069631,-0.288949,-9.758030,-0.000396,-0.000051,0.000594,0.677849,0.553217,3.612206,782.10,41.00,highres
17.452195,67324676594,-0.077749,-0.295182,-9.763156,-0.000333,-0.001154,0.000593,0.677849,0.553217,3.612206,782.10,41.00,highres
17.469869,67324698897,-0.077220,-0.291063,-9.768695,0.000765,-0.000114,0.000222,0.685289,0.557070,3.614751,782.10,41.00,highres
17.496664,67324721645,-0.074169,-0.304112,-9.772104,0.000588,-0.000597,-0.000389,0.696547,0.556715,3.609015,782.10,41.00,highres
17.510648,67324739021,-0.080812,-0.303033,-9.765105,0.000460,0.000100,-0.000206,0.696547,0.556715,3.609015,782.10,41.00,highres
17.524563,67324753918,-0.087060,-0.307821,-9.758057,0.000598,0.000950,0.000823,0.696547,0.556715,3.609015,782.10,41.00,highres
17.553048,67324774346,-0.077220,-0.297048,-9.772287,0.000275,0.001043,0.000472,0.696547,0.556715,3.609015,782.09,41.00,highres
17.569247,67324797329,-0.077933,-0.289381,-9.768952,-0.000579,0.000190,-0.000022,0.696547,0.556715,3.609015,782.09,41.00,highres
17.587710,67324808831,-0.073629,-0.297048,-9.767500,0.000653,0.000690,0.000334,0.696547,0.556715,3.609015,782.09,41.00,highres
17.605326,67324838437,-0.070578,-0.308058,-9.759542,0.000963,0.000821,-0.000290,0.681643,0.551814,3.614136,782.09,41.00,highres
17.623199,67324864160,-0.080355,-0.307451,-9.757139,-0.000874,-0.000577,0.000177,0.684911,0.540774,3.618452,782.09,41.00,highres
17.654032,67324881526,-0.074024,-0.290168,-9.763212,0.000688,-0.000164,-0.001000,0.684911,0.540774,3.618452,782.09,41.00,highres
17.670131,67324898850,-0.070038,-0.303084,-9.758859,0.000154,0.000926,-0.000448,0.684911,0.540774,3.618452,782.09,41.00,highres
17.688129,67324922084,-0.082890,-0.291966,-9.762102,0.000263,0.000388,0.001009,0.684911,0.540774,3.618452,782.09,41.00,highres
17.703060,67324938692,-0.074826,-0.290612,-9.760441,0.000123,-0.001852,-0.000600,0.684911,0.540774,3.618452,782.09,41.00,highres
17.728360,67324959776,-0.068285,-0.300083,-9.769518,-0.000457,0.000944,0.000716,0.684911,0.540774,3.618452,782.09,41.00,highres
17.752921,67324974438,-0.076595,-0.300639,-9.773067,-0.000457,-0.000420,0.000527,0.681762,0.558473,3.614103,782.09,41.00,highres
17.770457,67324991147,-0.066004,-0.300771,-9.768744,-0.000999,0.001718,-0.000321,0.684366,0.557413,3.626357,782.09,41.00,highres
17.794259,67325015274,-0.076727,-0.305847,-9.761230,-0.000675,-0.001030,0.000614,0.684366,0.557413,3.626357,782.10,41.00,highres
17.803294,67325036784,-0.062132,-0.294624,-9.769642,0.000365,0.000569,-0.000062,0.684366,0.557413,3.626357,782.10,41.00,highres
17.822826,67325050977,-0.079972,-0.311252,-9.767980,-0.000204,0.000032,0.000023,0.684366,0.557413,3.626357,782.10,41.00,highres
17.854050,67325076782,-0.076827,-0.302836,-9.766499,-0.000151,0.000128,-0.001305,0.684366,0.557413,3.626357,782.10,41.00,highres
17.870863,67325096777,-0.083908,-0.297388,-9.770905,-0.000004,0.000112,-0.000163,0.684366,0.557413,3.626357,782.11,41.00,highres
17.893790,67325119102,-0.082009,-0.309018,-9.761515,0.000105,-0.000676,0.000222,0.679147,0.552402,3.619918,782.11,41.00,highres
17.902391,67325138603,-0.080122,-0.299259,-9.758571,0.000154,-0.000901,-0.000518,0.682506,0.553464,3.613780,782.11,41.00,highres
17.922968,67325159813,-0.073536,-0.292278,-9.768716,0.000770,-0.000429,0.000983,0.682506,0.553464,3.613780,782.11,41.00,highres
17.952960,67325177253,-0.078761,-0.300815,-9.771258,-0.000320,-0.000927,0.000086,0.682506,0.553464,3.613780,782.11,41.15,highres
17.970062,67325197156,-0.081150,-0.305631,-9.764880,-0.000151,-0.000726,0.000679,0.682506,0.553464,3.613780,782.11,41.15,highres
17.988163,67325217388,-0.074826,-0.293457,-9.763908,0.000479,0.000034,0.000537,0.682506,0.553464,3.613780,782.11,41.15,highres
18.004011,67325241467,-0.084403,-0.299978,-9.770529,-0.000457,0.000945,-0.000090,0.682506,0.553464,3.613780,782.11,41.15,highres
18.023020,67325258819,-0.068246,-0.295251,-9.762706,-0.000457,0.000192,-0.000542,0.681026,0.556105,3.619592,782.10,41.30,highres
18.053500,67325279023,-0.075005,-0.293356,-9.761515,-0.000456,0.001024,-0.000389,0.705874,0.570745,3.615066,782.10,41.30,highres
18.069460,67325296655,-0.069381,-0.303760,-9.758345,0.000238,-0.000253,-0.000083,0.705874,0.570745,3.615066,782.10,41.30,highres
18.088707,67325320246,-0.076023,-0.298245,-9.765105,-0.000192,-0.000593,0.000003,0.705874,0.570745,3.615066,782.10,41.30,highres
18.103609,67325341641,-0.072981,-0.300938,-9.766302,0.000294,0.000547,-0.000224,0.705874,0.570745,3.615066,782.10,41.30,highres
18.123215,67325361559,-0.061279,-0.301982,-9.765776,0.000594,0.000497,0.000699,0.705874,0.570745,3.615066,782.10,41.30,highres
18.153038,67325376974,-0.073629,-0.310819,-9.759707,0.001377,0.000651,-0.000694,0.705874,0.570745,3.615066,782.10,41.30,highres
18.170985,67325396952,-0.076646,-0.296236,-9.768790,-0.000151,0.000622,-0.000152,0.683405,0.555861,3.612730,782.10,41.30,highres
18.190660,67325414570,-0.074130,-0.312499,-9.767805,-0.000506,-0.000214,0.000300,0.693184,0.565283,3.610736,782.10,41.30,highres
18.203002,67325424595,-0.077669,-0.297917,-9.769833,0.000296,0.000027,0.000550,0.693184,0.565283,3.610736,782.10,41.30,highres
18.223785,67325456486,-0.077950,-0.302099,-9.766749,0.000574,-0.000018,0.000947,0.693184,0.565283,3.610736,782.10,41.30,highres
18.255146,67325476839,-0.089232,-0.290184,-9.763748,-0.000884,-0.000909,-0.000023,0.693184,0.565283,3.610736,782.10,41.30,highres
18.269022,67325492428,-0.065663,-0.301589,-9.759245,-0.000762,-0.000114,-0.000694,0.693184,0.565283,3.610736,782.10,41.30,highres
18.293268,67325512253,-0.078126,-0.291030,-9.761061,0.001682,-0.000420,-0.001000,0.693184,0.565283,3.610736,782.10,41.30,highres
18.297255,67325534553,-0.085600,-0.297048,-9.772288,0.000154,-0.000725,0.000222,0.680835,0.562290,3.617479,782.10,41.30,highres
18.297255,67325554598,-0.074826,-0.299442,-9.751938,0.001462,0.000105,0.000308,0.684383,0.545577,3.614741,782.10,41.30,highres
18.353216,67325574716,-0.077223,-0.298848,-9.753746,0.000200,-0.000465,0.001138,0.684383,0.545577,3.614741,782.10,41.30,highres
18.369500,67325596999,-0.077006,-0.306560,-9.760103,-0.000566,-0.000551,-0.000476,0.684383,0.545577,3.614741,782.10,41.30,highres
18.387958,67325608109,-0.074828,-0.304607,-9.763592,-0.000151,-0.000726,-0.001000,0.684383,0.545577,3.614741,782.10,41.30,highres
18.403565,67325639401,-0.071995,-0.304874,-9.773658,-0.000007,-0.000304,0.000455,0.684383,0.545577,3.614741,782.10,41.30,highres
18.425798,67325657760,-0.071899,-0.306496,-9.757226,0.000435,-0.000586,0.000915,0.684383,0.545577,3.614741,782.09,41.30,highres
18.455087,67325675306,-0.082025,-0.309235,-9.759849,-0.001068,0.000190,0.000221,0.683192,0.554258,3.612216,782.09,41.30,highres
18.469277,67325702618,-0.068302,-0.297980,-9.773943,0.000462,0.000190,-0.000084,0.701380,0.548365,3.595878,782.09,41.30,highres
18.496052,67325722056,-0.086813,-0.306796,-9.771907,0.001376,0.000358,-0.000784,0.701380,0.548365,3.595878,782.09,41.30,highres
18.507020,67325737234,-0.066302,-0.296257,-9.774539,-0.000469,-0.000018,0.000637,0.701380,0.548365,3.595878,782.09,41.30,highres
18.521980,67325759485,-0.080010,-0.308953,-9.762600,-0.000183,0.000527,0.000382,0.701380,0.548365,3.595878,782.09,41.30,highres
18.553574,67325782190,-0.074863,-0.307736,-9.765182,-0.001699,0.000027,0.000507,0.701380,0.548365,3.595878,782.09,41.30,highres
18.570477,67325797734,-0.078434,-0.300636,-9.756915,-0.000204,-0.000156,0.000089,0.701380,0.548365,3.595878,782.09,41.30,highres
