t_wall_s,t_boot_us,ax,ay,az,gx,gy,gz,mx,my,mz,abs_pressure,temperature,source
2.254349,67061322013,4.903778,-1.172653,-8.330444,-0.056515,-0.017800,-0.009613,-0.019823,1.097111,2.664997,782.08,42.30,highres
2.254349,67061345741,4.914508,-1.253266,-8.352387,-0.003363,0.020199,0.012215,-0.019823,1.097111,2.664997,782.08,42.30,highres
2.254349,67061364120,5.029417,-1.375500,-8.204340,0.018500,0.063637,0.012988,-0.019823,1.097111,2.664997,782.08,42.30,highres
2.254349,67061386630,5.042628,-1.410793,-8.062701,0.013725,0.035362,-0.013663,-0.019823,1.097111,2.664997,782.08,42.30,highres
2.254349,67061402782,5.016473,-1.366904,-8.136619,-0.033518,-0.046231,-0.039496,-0.016098,1.106152,2.677400,782.08,42.30,highres
2.254349,67061429536,4.827734,-1.078732,-8.317917,-0.034541,-0.061077,-0.037926,-0.016098,1.106152,2.677400,782.08,42.30,highres
2.254349,67061444097,4.772635,-1.017109,-8.410949,-0.018146,-0.036345,-0.005290,-0.016098,1.106152,2.677400,782.08,42.30,highres
2.254349,67061469773,4.799547,-1.192050,-8.269970,-0.013387,0.004048,0.036233,-0.025290,1.103790,2.667817,782.08,42.30,highres
2.255398,67061484994,4.863482,-1.266678,-8.213790,0.004621,0.000536,0.031561,-0.025290,1.103790,2.667817,782.08,42.30,highres
2.255398,67061507626,4.870330,-1.325861,-8.448982,0.007718,-0.002255,0.007559,-0.025290,1.103790,2.667817,782.08,42.30,highres
2.255398,67061527508,4.914881,-1.192136,-8.446728,-0.028242,0.003711,0.005124,-0.025290,1.103790,2.667817,782.08,42.30,highres
2.255398,67061547628,4.937850,-1.133748,-8.422746,-0.019741,0.019446,0.013726,-0.017658,1.099667,2.678317,782.08,42.30,highres
2.255398,67061564669,4.919474,-1.244790,-8.390023,-0.008388,0.032116,0.025206,-0.017658,1.099667,2.678317,782.08,42.30,highres
2.255398,67061575586,4.877322,-1.327670,-8.360549,-0.017308,0.026820,0.024676,-0.017658,1.099667,2.678317,782.08,42.30,highres
2.255398,67061595116,4.891834,-1.306878,-8.419875,-0.034819,0.022528,0.011894,-0.023222,1.095502,2.676703,782.08,42.30,highres
2.255398,67061619972,4.775205,-1.093247,-8.235550,-0.001622,0.065596,0.025870,-0.023222,1.095502,2.676703,782.08,42.30,highres
2.255398,67061642667,5.018057,-1.340689,-8.151010,-0.017490,0.072671,0.073836,-0.023222,1.095502,2.676703,782.08,42.30,highres
2.255742,67061655059,5.082463,-1.423334,-8.096328,-0.043754,0.056646,0.066766,-0.023222,1.095502,2.676703,782.08,42.30,highres
2.255742,67061669589,5.173293,-1.252982,-7.940810,-0.041069,0.033949,0.045975,-0.018978,1.103675,2.677995,782.08,42.30,highres
2.255742,67061705734,5.330765,-1.388313,-8.272703,0.016528,-0.028173,0.030780,-0.018978,1.103675,2.677995,782.08,42.30,highres
2.255742,67061726728,5.328735,-1.752644,-8.375428,0.010288,-0.027687,-0.047296,-0.018978,1.103675,2.677995,782.08,42.30,highres
2.255742,67061745586,5.167301,-1.478091,-8.333017,0.016047,-0.021335,-0.109490,-0.022316,1.098912,2.689748,782.08,42.30,highres
2.255742,67061767056,4.865819,-1.072033,-8.156590,0.055899,-0.007166,-0.097924,-0.022316,1.098912,2.689748,782.08,42.30,highres
2.255742,67061779354,4.810224,-1.100132,-8.028849,0.070116,-0.014012,-0.073421,-0.022316,1.098912,2.689748,782.08,42.30,highres
2.255742,67061804499,4.809015,-1.282651,-8.176940,0.040134,-0.068944,-0.072095,-0.022316,1.098912,2.689748,782.08,42.30,highres
2.256064,67061823359,4.753613,-1.046333,-8.185780,-0.004520,-0.114650,-0.069469,-0.018911,1.098900,2.677093,782.08,42.30,highres
2.256064,67061844734,4.695602,-1.000316,-8.337394,0.010096,-0.122307,-0.027913,-0.018911,1.098900,2.677093,782.08,42.30,highres
2.256064,67061869683,4.857453,-1.281738,-8.577477,0.033920,-0.080532,-0.002735,-0.018911,1.098900,2.677093,782.08,42.30,highres
2.256064,67061884837,4.975738,-1.333832,-8.666392,0.096302,-0.030347,-0.008567,-0.023141,1.092045,2.672411,782.08,42.30,highres
2.256064,67061899492,5.047848,-1.341977,-8.660815,0.159850,0.025544,-0.006808,-0.023141,1.092045,2.672411,782.08,42.30,highres
2.256064,67061927060,4.949389,-1.350705,-8.457784,0.131254,0.054461,-0.025744,-0.023141,1.092045,2.672411,782.07,42.30,highres
2.256064,67061944966,4.851493,-1.122801,-8.151757,0.083592,0.035489,0.003059,-0.023141,1.092045,2.672411,782.07,42.30,highres
2.256064,67061964019,4.751231,-1.159363,-8.067019,0.088277,0.004222,0.050395,-0.022884,1.088687,2.681664,782.07,42.30,highres
2.256064,67061985397,4.787951,-1.637045,-8.231011,0.099736,-0.046686,0.095454,-0.022884,1.088687,2.681664,782.07,42.30,highres
2.256064,67062007738,4.856615,-1.787321,-8.357710,-0.022007,-0.106708,0.009393,-0.022884,1.088687,2.681664,782.07,42.30,highres
2.256350,67062025072,4.780947,-1.335780,-8.305354,-0.080761,-0.136302,-0.016900,-0.000182,1.088212,2.675200,782.07,42.30,highres
2.256350,67062045908,4.792624,-1.318884,-8.610733,-0.042902,-0.099220,0.047502,-0.000182,1.088212,2.675200,782.07,42.30,highres
2.256350,67062068124,5.009880,-1.833673,-8.807298,-0.030039,0.022032,0.032773,-0.000182,1.088212,2.675200,782.07,42.30,highres
2.256350,67062078199,5.163807,-1.837481,-8.716899,0.002913,0.083123,-0.009308,-0.000182,1.088212,2.675200,782.07,42.30,highres
2.256350,67062102835,5.200219,-1.569052,-8.360539,0.066831,0.170278,-0.105679,-0.007361,1.086883,2.683975,782.07,42.30,highres
2.256350,67062117896,5.129490,-1.179426,-8.188122,0.058036,0.136336,-0.111640,-0.007361,1.086883,2.683975,782.07,42.30,highres
2.256350,67062150079,5.289501,-1.533377,-8.204238,0.060412,0.107069,-0.043156,-0.007361,1.086883,2.683975,782.07,42.30,highres
2.256657,67062167931,5.435523,-1.748485,-8.042175,0.137589,0.143139,-0.115662,-0.004361,1.080009,2.673718,782.07,42.30,highres
2.256657,67062188078,5.149413,-1.736057,-8.123205,0.271166,0.131717,-0.198360,-0.004361,1.080009,2.673718,782.07,42.30,highres
2.256657,67062200832,5.089687,-1.766779,-8.271623,0.347541,0.130741,-0.173432,-0.004361,1.080009,2.673718,782.07,42.30,highres
2.256657,67062223135,5.259088,-1.484396,-8.649916,0.396938,0.228727,-0.104043,-0.004361,1.080009,2.673718,782.07,42.30,highres
2.256657,67062243115,4.961128,-1.506311,-8.526392,0.384730,0.271170,-0.071904,-0.006743,1.078975,2.665668,782.07,42.30,highres
2.256657,67062260606,4.950469,-2.131155,-8.051792,0.341086,0.295292,0.036448,-0.006743,1.078975,2.665668,782.07,42.30,highres
2.256657,67062278518,5.338479,-2.587756,-7.243702,0.361084,0.210625,0.091716,-0.006743,1.078975,2.665668,782.07,42.30,highres
2.256657,67062304149,5.087415,-2.401945,-7.597300,0.243135,-0.159146,-0.139418,0.005407,1.069265,2.657221,782.07,42.30,highres
2.256657,67062327856,4.894032,-1.849273,-8.687952,-0.083848,-0.208365,-0.226307,0.005407,1.069265,2.657221,782.07,42.30,highres
2.256657,67062346190,4.935525,-1.315320,-8.611000,-0.002790,0.019955,-0.210286,0.005407,1.069265,2.657221,782.07,42.30,highres
2.256880,67062368714,5.324419,-1.428253,-8.490184,0.543863,0.427333,-0.155176,0.005407,1.069265,2.657221,782.07,42.30,highres
2.256880,67062385676,5.363223,-1.190406,-7.993781,0.839102,0.672136,-0.165575,0.011071,1.061181,2.636132,782.07,42.30,highres
2.256880,67062405456,5.120093,-1.117855,-7.624475,0.757212,0.647538,-0.082438,0.011071,1.061181,2.636132,782.07,42.30,highres
2.256880,67062426100,5.305799,-1.433685,-7.216978,0.571711,0.438951,0.031546,0.011071,1.061181,2.636132,782.07,42.30,highres
2.256880,67062445843,5.315338,-1.578176,-6.989997,0.393763,0.199670,0.119054,0.018456,1.049130,2.613631,782.07,42.30,highres
2.256880,67062468094,5.097616,-1.855546,-7.120391,-0.026654,-0.112881,0.085359,0.018456,1.049130,2.613631,782.07,42.30,highres
2.256880,67062486624,5.010403,-1.897713,-7.467481,-0.416382,-0.299165,0.032771,0.018456,1.049130,2.613631,782.07,42.30,highres
2.256880,67062510697,4.794777,-1.179239,-8.030848,-0.745601,-0.354377,0.026101,0.018456,1.049130,2.613631,782.07,42.30,highres
2.257070,67062528782,4.962033,-1.595602,-8.005178,-0.643939,-0.258857,0.083977,0.023249,1.045811,2.614424,782.07,42.30,highres
2.257070,67062548116,4.884600,-1.315538,-8.015532,-0.419058,-0.164614,0.112423,0.023249,1.045811,2.614424,782.07,42.30,highres
2.257070,67062566329,5.174645,-1.614338,-7.880059,-0.255535,-0.127879,0.195025,0.023249,1.045811,2.614424,782.07,42.30,highres
2.257070,67062588470,5.205175,-1.728037,-8.073909,-0.383875,-0.237015,0.150692,0.017990,1.050240,2.625556,782.07,42.30,highres
2.257070,67062606468,5.259193,-1.936173,-8.624177,-0.476475,-0.285956,0.109044,0.017990,1.050240,2.625556,782.07,42.30,highres
2.257070,67062623939,5.195046,-2.074222,-9.172357,-0.256558,-0.025776,0.067689,0.017990,1.050240,2.625556,782.07,42.30,highres
2.257070,67062643418,5.193242,-1.909912,-8.645584,0.057501,0.345138,0.039027,0.017990,1.050240,2.625556,782.07,42.30,highres
2.257070,67062668262,5.722100,-2.187051,-7.568402,0.472092,0.517030,-0.042380,0.024220,1.054909,2.629836,782.08,42.30,highres
2.257272,67062681254,5.880091,-2.035662,-8.159699,0.412220,0.513451,-0.127159,0.024220,1.054909,2.629836,782.08,42.30,highres
2.257272,67062705823,5.455794,-1.345242,-7.165310,0.284825,0.406566,-0.057569,0.024220,1.054909,2.629836,782.08,42.30,highres
2.257272,67062721244,5.599566,-1.386669,-7.136639,0.290016,0.321046,0.023982,0.021799,1.058527,2.618177,782.08,42.30,highres
2.257272,67062746548,5.600633,-2.013172,-7.236520,0.137392,0.173968,0.052866,0.021799,1.058527,2.618177,782.08,42.30,highres
2.257272,67062763517,5.641795,-2.071433,-7.189082,-0.111237,-0.016478,0.005607,0.021799,1.058527,2.618177,782.08,42.30,highres
2.257272,67062780807,5.478884,-1.721149,-7.414825,-0.196607,-0.137584,-0.013014,0.021799,1.058527,2.618177,782.08,42.30,highres
2.257272,67062799097,5.279341,-1.555175,-7.959918,-0.115608,-0.101069,0.036882,0.024592,1.052167,2.608403,782.08,42.30,highres
2.257272,67062818204,5.388824,-2.203174,-7.835403,-0.034239,-0.003952,0.078503,0.024592,1.052167,2.608403,782.07,42.30,highres
2.257272,67062843373,5.493379,-1.833705,-7.913544,0.026786,0.054801,-0.001529,0.024592,1.052167,2.608403,782.07,42.30,highres
2.257487,67062856870,5.356139,-1.579173,-8.043363,-0.020653,0.040267,-0.001455,0.015578,1.052794,2.613963,782.07,42.30,highres
2.257487,67062879032,5.425872,-1.792259,-8.016395,-0.000585,0.086855,0.089946,0.015578,1.052794,2.613963,782.07,42.30,highres
2.257487,67062896422,5.512051,-2.513236,-8.098693,-0.020377,0.095586,0.086173,0.015578,1.052794,2.613963,782.08,42.30,highres
2.257487,67062921357,5.479965,-2.051785,-8.159295,-0.153532,0.049421,-0.042149,0.015578,1.052794,2.613963,782.08,42.30,highres
2.257487,67062941339,5.418762,-1.443593,-7.995122,-0.159420,0.057458,-0.071061,0.022724,1.055031,2.612210,782.08,42.30,highres
2.257487,67062961128,5.486698,-1.182545,-7.674631,-0.056470,0.098059,-0.010250,0.022724,1.055031,2.612210,782.08,42.30,highres
2.257487,67062981747,5.484406,-1.435436,-7.234500,-0.096051,-0.003628,0.043225,0.022724,1.055031,2.612210,782.08,42.30,highres
2.257487,67062998633,5.400472,-1.325332,-7.200112,-0.192537,-0.147544,0.082197,0.016879,1.053813,2.615046,782.08,42.30,highres
2.257487,67063016900,5.336040,-1.599091,-7.307215,-0.143838,-0.222523,0.139208,0.016879,1.053813,2.615046,782.08,42.30,highres
2.257682,67063046019,5.643693,-1.930337,-7.681785,0.026856,-0.244056,0.127891,0.016879,1.053813,2.615046,782.08,42.30,highres
2.257682,67063062120,5.692668,-2.139452,-8.125010,0.035151,-0.161443,0.069635,0.016879,1.053813,2.615046,782.08,42.30,highres
2.257682,67063086343,5.566817,-1.675524,-8.119820,0.088511,-0.029254,0.010909,0.022114,1.064874,2.616945,782.08,42.30,highres
2.257682,67063104560,5.670654,-1.714946,-8.328729,0.159513,0.106450,0.034427,0.022114,1.064874,2.616945,782.08,42.30,highres
2.257682,67063116519,5.759295,-2.140751,-8.253910,0.185558,0.138704,0.045058,0.022114,1.064874,2.616945,782.08,42.30,highres
2.257682,67063141633,5.736185,-2.011652,-8.166756,0.006439,0.073983,-0.017020,0.019120,1.061342,2.610149,782.08,42.30,highres
2.257682,67063164478,5.616067,-1.953091,-8.184335,-0.017850,0.078025,-0.015791,0.019120,1.061342,2.610149,782.08,42.30,highres
2.257682,67063186476,5.704756,-2.622981,-8.100204,-0.163446,0.083037,-0.107988,0.019120,1.061342,2.610149,782.08,42.30,highres
2.257682,67063204176,5.524713,-1.897028,-7.795508,-0.227387,0.056542,-0.209673,0.019120,1.061342,2.610149,782.09,42.30,highres
2.257905,67063219912,5.277758,-1.152368,-7.587757,-0.154878,0.061105,-0.184127,0.007471,1.067084,2.614494,782.09,42.30,highres
2.257905,67063248538,5.310870,-1.247227,-7.497811,0.027569,0.086089,-0.004873,0.007471,1.067084,2.614494,782.09,42.30,highres
2.257905,67063265997,5.376165,-1.604566,-7.254476,-0.003595,0.003827,0.028269,0.007471,1.067084,2.614494,782.09,42.30,highres
2.257905,67063283760,5.350428,-1.550388,-7.444326,-0.028292,-0.077657,0.028659,0.011745,1.060820,2.618776,782.09,42.30,highres
2.257905,67063306569,5.392354,-1.715675,-7.838718,0.038675,-0.060910,0.037146,0.011745,1.060820,2.618776,782.08,42.30,highres
2.257905,67063323668,5.612473,-1.732825,-7.920359,0.003819,-0.045156,0.007484,0.011745,1.060820,2.618776,782.08,42.30,highres
2.257905,67063346317,5.770403,-1.576996,-7.950092,-0.057530,-0.077474,0.005911,0.011745,1.060820,2.618776,782.08,42.30,highres
2.257905,67063369698,5.658670,-1.557605,-8.260985,-0.043074,-0.030846,0.058236,0.008366,1.061242,2.617833,782.08,42.30,highres
2.258054,67063386276,5.562345,-1.825006,-8.110143,-0.025379,0.028670,0.071649,0.008366,1.061242,2.617833,782.08,42.30,highres
2.258054,67063406187,5.645607,-2.118411,-7.924620,0.021211,0.073334,0.004897,0.008366,1.061242,2.617833,782.08,42.30,highres
2.258054,67063426181,5.517072,-1.902506,-7.789002,0.018689,0.069768,-0.061384,0.014295,1.062244,2.618696,782.08,42.30,highres
2.258054,67063439378,5.455734,-1.764614,-7.756206,-0.005242,0.037397,-0.065650,0.014295,1.062244,2.618696,782.08,42.30,highres
2.258054,67063467221,5.463490,-1.482361,-7.883504,-0.061855,-0.019674,-0.016076,0.014295,1.062244,2.618696,782.09,42.30,highres
2.258054,67063482419,5.509320,-1.581095,-8.020119,-0.051464,0.016541,0.013287,0.014295,1.062244,2.618696,782.09,42.30,highres
2.258054,67063504288,5.501019,-1.590707,-7.746111,-0.056152,0.049357,0.044982,0.016387,1.060646,2.616917,782.09,42.30,highres
2.258054,67063514295,5.568857,-1.847967,-7.663221,-0.021948,0.049208,0.045934,0.016387,1.060646,2.616917,782.09,42.30,highres
2.258054,67063541854,5.527221,-1.874746,-7.783737,0.043901,0.043536,-0.026842,0.016387,1.060646,2.616917,782.09,42.30,highres
2.258188,67063559879,5.593244,-1.853181,-7.813689,-0.004658,0.019137,-0.063415,0.012944,1.055184,2.615160,782.09,42.30,highres
2.258221,67063579475,5.525937,-1.428767,-7.637773,-0.066075,-0.023955,-0.080963,0.012944,1.055184,2.615160,782.09,42.30,highres
2.258221,67063604348,5.505621,-1.299375,-7.751569,-0.021519,-0.010391,0.009272,0.012944,1.055184,2.615160,782.09,42.30,highres
2.300492,67063622359,5.534281,-1.674495,-7.727051,-0.035567,0.007686,0.039092,0.012944,1.055184,2.615160,782.09,42.30,highres
2.318569,67063638908,5.450257,-1.667225,-7.624903,-0.058197,-0.020807,0.028994,0.017738,1.063001,2.619246,782.09,42.30,highres
2.348086,67063667466,5.542612,-1.808231,-7.740897,-0.027789,-0.049969,0.008155,0.017738,1.063001,2.619246,782.09,42.30,highres
2.366533,67063687490,5.608491,-1.626164,-7.904408,-0.084194,-0.082281,-0.017944,0.017738,1.063001,2.619246,782.08,42.30,highres
2.378725,67063702715,5.555511,-1.390817,-8.074821,-0.114868,-0.064702,0.007054,0.007367,1.058891,2.625860,782.08,42.30,highres
2.399918,67063720667,5.496447,-1.354486,-7.984295,-0.041080,0.011655,0.051161,0.007367,1.058891,2.625860,782.08,42.30,highres
2.418951,67063742299,5.570282,-1.799059,-7.673632,0.065736,0.097676,0.079907,0.007367,1.058891,2.625860,782.08,42.30,highres
2.448015,67063766851,5.567195,-1.892960,-7.447194,0.027272,0.009322,0.021470,0.007367,1.058891,2.625860,782.08,42.30,highres
2.464804,67063783032,5.551296,-1.658117,-7.602636,0.044326,-0.044182,-0.006699,0.014410,1.058925,2.617912,782.08,42.30,highres
2.478556,67063804582,5.514157,-1.469258,-7.944841,0.048106,-0.043018,0.032530,0.014410,1.058925,2.617912,782.08,42.30,highres
2.500546,67063823027,5.507118,-1.648378,-8.006699,-0.014799,-0.032966,0.059186,0.014410,1.058925,2.617912,782.08,42.30,highres
2.517587,67063842993,5.614511,-1.876713,-7.832647,-0.114032,-0.058856,0.023717,0.015866,1.056870,2.621721,782.08,42.30,highres
2.547571,67063867400,5.476590,-1.626700,-7.698284,-0.108610,-0.095614,-0.022173,0.015866,1.056870,2.621721,782.08,42.30,highres
2.565073,67063885015,5.532216,-1.563408,-8.044637,-0.020680,-0.072658,-0.009798,0.015866,1.056870,2.621721,782.08,42.30,highres
2.583828,67063909646,5.455745,-1.648209,-8.344049,0.020199,0.029549,-0.008842,0.015866,1.056870,2.621721,782.08,42.30,highres
2.600612,67063919602,5.438955,-1.491995,-8.337422,0.001983,0.064016,0.010655,0.010979,1.058128,2.623807,782.08,42.30,highres
2.621456,67063946029,5.480869,-1.496549,-7.954324,-0.028534,0.106792,0.060450,0.010979,1.058128,2.623807,782.09,42.30,highres
2.638900,67063964956,5.519712,-1.613119,-7.629811,-0.023555,0.088303,0.069365,0.010979,1.058128,2.623807,782.09,42.30,highres
2.665812,67063985875,5.545559,-1.914976,-7.451316,-0.068350,0.005686,0.029047,0.008204,1.057344,2.625652,782.09,42.30,highres
2.679677,67064003008,5.543302,-1.604417,-7.676969,-0.029128,-0.035301,-0.013108,0.008204,1.057344,2.625652,782.09,42.30,highres
2.699999,67064028455,5.467760,-1.514003,-7.860183,-0.031021,-0.030296,0.021036,0.008204,1.057344,2.625652,782.08,42.30,highres
2.716862,67064045028,5.635018,-1.892849,-7.841099,-0.004207,-0.008357,0.005557,0.008204,1.057344,2.625652,782.08,42.30,highres
2.747726,67064067945,5.641644,-1.702378,-7.831776,0.054475,0.014968,-0.045268,0.019382,1.064877,2.618494,782.08,42.30,highres
2.764827,67064079578,5.533340,-1.514942,-7.826665,0.029699,-0.000257,-0.037887,0.019382,1.064877,2.618494,782.08,42.30,highres
2.778664,67064103739,5.460976,-1.455743,-7.814292,-0.033090,-0.040632,0.001721,0.019382,1.064877,2.618494,782.08,42.30,highres
2.798610,67064124828,5.515706,-1.513229,-7.995735,0.027120,-0.007151,0.004953,0.012641,1.066002,2.616900,782.08,42.30,highres
2.818458,67064147296,5.487250,-1.496384,-7.970123,-0.042002,-0.013957,0.001702,0.012641,1.066002,2.616900,782.08,42.30,highres
2.847402,67064162844,5.481705,-1.506701,-7.853833,-0.131360,-0.065499,0.020480,0.012641,1.066002,2.616900,782.08,42.30,highres
2.865363,67064180926,5.456071,-1.569614,-7.837573,-0.101396,-0.070475,0.030188,0.012641,1.066002,2.616900,782.08,42.30,highres
2.884642,67064202995,5.336169,-1.557754,-7.961805,0.026014,-0.006148,0.027380,0.011954,1.060321,2.623008,782.08,42.30,highres
2.906163,67064213484,5.332093,-1.573443,-7.986670,0.075595,0.033645,0.032530,0.011954,1.060321,2.623008,782.08,42.30,highres
2.919232,67064230510,5.473126,-1.649861,-7.817973,0.071689,0.058909,0.041614,0.011954,1.060321,2.623008,782.08,42.30,highres
2.940583,67064265353,5.579086,-1.577187,-7.741675,-0.031576,-0.019813,0.044300,0.013225,1.054198,2.618899,782.07,42.30,highres
2.965898,67064285144,5.609012,-1.630117,-7.833848,-0.041693,-0.035680,0.046271,0.013225,1.054198,2.618899,782.07,42.30,highres
2.979399,67064300266,5.596181,-1.769185,-7.899817,-0.048410,-0.041021,0.023195,0.013225,1.054198,2.618899,782.07,42.30,highres
2.997727,67064324974,5.551304,-1.822686,-8.016195,-0.021789,-0.018330,-0.002121,0.013225,1.054198,2.618899,782.07,42.30,highres
3.019787,67064345188,5.503814,-1.632438,-7.968561,-0.004631,0.001791,-0.028762,0.013612,1.063344,2.615386,782.08,42.30,highres
3.046891,67064363110,5.413161,-1.326692,-7.896809,0.024544,0.017716,-0.006067,0.013612,1.063344,2.615386,782.08,42.30,highres
3.063576,67064380742,5.344464,-1.394882,-7.880782,0.015721,0.030293,0.032944,0.013612,1.063344,2.615386,782.08,42.30,highres
3.076974,67064403120,5.451145,-1.641579,-7.749911,0.000857,0.012145,0.035832,0.013133,1.063797,2.616729,782.08,42.30,highres
3.098884,67064420309,5.456575,-1.567940,-7.792940,0.000637,-0.019344,0.018782,0.013133,1.063797,2.616729,782.08,42.30,highres
3.116452,67064445776,5.515408,-1.551373,-8.128003,-0.027947,-0.024286,0.029327,0.013133,1.063797,2.616729,782.08,42.30,highres
3.146908,67064465217,5.452627,-1.488842,-8.040375,-0.025345,0.034477,0.053406,0.013133,1.063797,2.616729,782.08,42.30,highres
3.162841,67064489775,5.636553,-1.954831,-7.646259,0.003915,0.044654,0.032697,0.005811,1.060661,2.624645,782.08,42.30,highres
3.178387,67064507632,5.651822,-1.902512,-7.711345,-0.028988,-0.025830,-0.039230,0.005811,1.060661,2.624645,782.08,42.30,highres
3.199966,67064523229,5.437544,-1.416267,-7.891289,-0.052995,-0.057671,-0.034057,0.005811,1.060661,2.624645,782.08,42.30,highres
3.219581,67064541264,5.393914,-1.426523,-8.061646,-0.001101,-0.007715,0.014276,0.006567,1.067551,2.618676,782.08,42.30,highres
3.246460,67064563392,5.510525,-1.737687,-7.848374,0.055187,0.081681,0.026549,0.006567,1.067551,2.618676,782.08,42.30,highres
3.258735,67064585564,5.522533,-1.721521,-7.505081,-0.055743,-0.022546,-0.015426,0.006567,1.067551,2.618676,782.07,42.30,highres
3.258735,67064600370,5.484817,-1.511776,-7.706287,-0.066998,-0.104345,-0.025555,0.006567,1.067551,2.618676,782.07,42.30,highres
3.298923,67064618014,5.383856,-1.368832,-8.211358,-0.034424,-0.098695,-0.007911,0.007608,1.062190,2.624029,782.07,42.30,highres
3.323513,67064641293,5.389475,-1.420633,-8.169012,-0.017235,0.010372,0.038730,0.007608,1.062190,2.624029,782.07,42.30,highres
3.347713,67064657845,5.395087,-1.470190,-7.897663,0.026950,0.069792,0.057203,0.007608,1.062190,2.624029,782.07,42.30,highres
3.363681,67064682654,5.469678,-1.743492,-7.778296,0.069174,0.072404,0.050080,0.017000,1.055364,2.619549,782.07,42.30,highres
3.377378,67064703358,5.439685,-1.777903,-7.766450,-0.048564,-0.007490,0.002103,0.017000,1.055364,2.619549,782.07,42.30,highres
3.401049,67064725849,5.482061,-1.438684,-7.855732,-0.059916,-0.041201,0.011572,0.017000,1.055364,2.619549,782.07,42.30,highres
3.419986,67064745776,5.524541,-1.534032,-7.960947,-0.038558,-0.003549,0.045298,0.017000,1.055364,2.619549,782.07,42.30,highres
3.448528,67064766191,5.591211,-1.667013,-7.822473,-0.029387,0.019323,0.046512,0.014870,1.058270,2.615501,782.07,42.30,highres
3.459044,67064785773,5.594647,-1.764112,-7.679245,0.008441,0.013412,0.027563,0.014870,1.058270,2.615501,782.07,42.30,highres
3.483501,67064807738,5.538821,-1.707271,-7.879445,0.017801,-0.035865,-0.028967,0.014870,1.058270,2.615501,782.07,42.30,highres
3.499128,67064820483,5.414935,-1.565468,-8.015509,-0.018175,-0.047592,-0.030393,0.011042,1.069670,2.623065,782.07,42.30,highres
3.518558,67064840125,5.396380,-1.449853,-8.063287,-0.063395,-0.044662,-0.006988,0.011042,1.069670,2.623065,782.07,42.30,highres
3.546006,67064860773,5.393543,-1.466121,-8.000238,-0.047419,-0.006280,0.022548,0.011042,1.069670,2.623065,782.07,42.30,highres
3.564168,67064883221,5.434873,-1.556466,-7.837804,-0.003031,0.029545,0.036414,0.011042,1.069670,2.623065,782.07,42.30,highres
3.576702,67064897984,5.455790,-1.602306,-7.743757,-0.010247,0.015797,0.024842,0.015794,1.060836,2.628015,782.08,42.30,highres
3.597844,67064921399,5.382800,-1.519027,-7.773235,-0.096182,-0.063503,0.008623,0.015794,1.060836,2.628015,782.08,42.30,highres
3.619499,67064936793,5.460200,-1.558090,-7.990109,-0.110292,-0.095154,0.017580,0.015794,1.060836,2.628015,782.08,42.30,highres
3.646875,67064968420,5.550924,-1.592929,-8.269660,-0.057454,0.001196,0.009294,0.016342,1.064839,2.625129,782.08,42.30,highres
3.666327,67064988303,5.461268,-1.499279,-8.111315,-0.020796,0.070110,0.014004,0.016342,1.064839,2.625129,782.08,42.30,highres
3.676849,67065005788,5.444295,-1.422594,-7.851632,0.017053,0.092907,0.038779,0.016342,1.064839,2.625129,782.08,42.30,highres
3.699579,67065025782,5.361464,-1.555588,-7.673209,0.046613,0.075281,0.048050,0.016342,1.064839,2.625129,782.08,42.30,highres
3.717431,67065048164,5.386359,-1.819844,-7.577080,-0.014507,-0.013378,0.027337,0.010897,1.069345,2.619818,782.08,42.30,highres
3.746660,67065060964,5.536980,-1.838157,-7.736430,-0.033961,-0.054329,-0.005470,0.010897,1.069345,2.619818,782.07,42.30,highres
3.764142,67065083447,5.484109,-1.352168,-7.997487,-0.063918,-0.075550,-0.030905,0.010897,1.069345,2.619818,782.07,42.30,highres
3.779043,67065101124,5.493359,-1.446687,-8.154191,-0.017874,-0.029854,0.019016,0.016717,1.061426,2.618553,782.07,42.30,highres
3.798435,67065123575,5.624780,-1.960915,-7.994375,0.014781,0.044300,-0.002893,0.016717,1.061426,2.618553,782.07,42.30,highres
3.821139,67065141269,5.538173,-1.703942,-7.792911,-0.008311,0.032199,-0.056299,0.016717,1.061426,2.618553,782.06,42.50,highres
3.846477,67065158608,5.446213,-1.296085,-7.757311,-0.032685,-0.014416,-0.056537,0.016717,1.061426,2.618553,782.06,42.50,highres
3.864917,67065184703,5.430552,-1.324145,-7.842830,0.015616,-0.028084,-0.002165,0.009554,1.062793,2.627427,782.06,42.50,highres
3.876810,67065208983,5.453397,-1.615835,-7.888293,0.047466,0.003462,-0.022455,0.009554,1.062793,2.627427,782.06,42.50,highres
3.900778,67065225870,5.356808,-1.420650,-7.857733,0.037274,0.003608,-0.035481,0.009554,1.062793,2.627427,782.08,42.70,highres
3.917766,67065241480,5.284612,-1.319177,-7.841348,-0.007360,-0.028755,-0.013107,0.015646,1.063529,2.624564,782.08,42.70,highres
3.947175,67065264078,5.359995,-1.478255,-7.945854,0.011873,-0.029035,0.006021,0.015646,1.063529,2.624564,782.08,42.70,highres
3.963177,67065283221,5.372964,-1.430718,-7.987020,0.006196,-0.025994,-0.001355,0.015646,1.063529,2.624564,782.08,42.70,highres
3.979411,67065298179,5.370606,-1.234447,-8.119002,0.001837,-0.015020,0.019310,0.015646,1.063529,2.624564,782.07,42.70,highres
3.997270,67065323777,5.489307,-1.519988,-8.152264,0.031293,0.041903,0.052068,0.009830,1.061564,2.627686,782.07,42.70,highres
4.019557,67065347111,5.611969,-1.655724,-8.103349,0.000253,0.053509,0.019219,0.009830,1.061564,2.627686,782.07,42.70,highres
4.048564,67065369287,5.576692,-1.674407,-7.934400,-0.078603,0.012462,-0.009846,0.009830,1.061564,2.627686,782.07,42.70,highres
4.064808,67065388821,5.479280,-1.466647,-7.991906,-0.037304,0.021942,-0.006818,0.008512,1.068214,2.626011,782.07,42.70,highres
4.077009,67065408598,5.307375,-1.584841,-8.115685,0.000881,0.074141,0.029054,0.008512,1.068214,2.626011,782.07,42.70,highres
4.097865,67065428669,5.299086,-1.705814,-7.751604,-0.053564,0.086364,0.033514,0.008512,1.068214,2.626011,782.07,42.70,highres
4.117067,67065442487,5.330994,-1.787142,-7.472798,-0.055174,0.048731,0.030221,0.008512,1.068214,2.626011,782.07,42.70,highres
4.146905,67065466601,5.485904,-1.810889,-7.637177,-0.021644,-0.007925,-0.012949,0.008181,1.065916,2.626727,782.07,42.70,highres
4.163948,67065481483,5.502875,-1.460533,-7.835446,-0.012994,-0.000857,-0.001383,0.008181,1.065916,2.626727,782.07,42.70,highres
4.177845,67065503247,5.701938,-1.551422,-7.854189,-0.019579,0.039630,0.038353,0.008181,1.065916,2.626727,782.07,42.70,highres
4.198126,67065522530,5.901052,-1.766003,-7.529136,-0.025256,0.045760,0.014670,0.008707,1.072446,2.620077,782.07,42.70,highres
4.220016,67065539032,5.883614,-1.616628,-7.437676,-0.018648,-0.008807,-0.056930,0.008707,1.072446,2.620077,782.06,42.70,highres
4.247384,67065564668,5.433585,-1.098584,-7.759677,-0.062558,-0.134736,-0.078320,0.008707,1.072446,2.620077,782.06,42.70,highres
4.258801,67065581912,5.242395,-1.077802,-7.890761,-0.041380,-0.139199,-0.024809,0.008707,1.072446,2.620077,782.06,42.70,highres
4.258801,67065599932,5.079916,-1.202770,-7.982282,0.027458,-0.091241,0.012361,0.013810,1.056893,2.621839,782.06,42.70,highres
4.300167,67065623173,5.073244,-1.476234,-8.079422,0.051737,-0.045065,0.039545,0.013810,1.056893,2.621839,782.06,42.70,highres
4.316775,67065637171,5.118817,-1.447527,-8.102045,0.019546,-0.051254,0.034576,0.013810,1.056893,2.621839,782.06,42.70,highres
4.346396,67065662019,5.432203,-1.541663,-8.390862,0.054183,-0.014079,0.045880,0.003715,1.053847,2.629826,782.06,42.70,highres
4.364026,67065689256,5.661733,-1.605416,-8.450173,0.011978,0.064346,0.028602,0.003715,1.053847,2.629826,782.06,42.70,highres
4.377472,67065699425,5.679638,-1.540520,-8.327762,-0.007790,0.078094,0.024884,0.003715,1.053847,2.629826,782.06,42.70,highres
4.398687,67065717819,5.636826,-1.668500,-7.980651,-0.035863,0.081915,0.025636,0.003715,1.053847,2.629826,782.06,42.70,highres
4.418071,67065745391,5.598928,-1.836110,-7.857140,-0.003492,0.070086,-0.048333,0.005534,1.055672,2.625213,782.06,42.70,highres
4.447820,67065769785,5.323531,-1.373837,-7.751205,-0.007558,0.048880,-0.083618,0.005534,1.055672,2.625213,782.06,42.70,highres
4.463848,67065787044,5.296626,-1.223505,-7.786351,0.032031,0.049271,-0.047364,0.005534,1.055672,2.625213,782.06,42.70,highres
4.477419,67065802919,5.284832,-1.223177,-7.740247,0.040195,0.041336,-0.011727,0.010563,1.051559,2.613212,782.06,42.70,highres
4.498342,67065820262,5.375194,-1.694819,-7.913427,-0.048666,-0.017061,0.015776,0.010563,1.051559,2.613212,782.06,42.70,highres
4.520860,67065847530,5.565472,-1.678833,-8.053227,0.001406,0.006635,-0.019416,0.010563,1.051559,2.613212,782.06,42.70,highres
4.537333,67065865030,5.505787,-1.560061,-8.179099,0.053745,0.078758,-0.025803,0.010563,1.051559,2.613212,782.07,42.70,highres
4.563308,67065886976,5.527429,-1.390483,-7.807526,0.041608,0.103582,0.010956,0.006433,1.059253,2.626784,782.07,42.70,highres
4.578143,67065908875,5.550116,-1.555165,-7.602101,-0.043181,0.019841,0.027694,0.006433,1.059253,2.626784,782.07,42.70,highres
4.598494,67065927717,5.593608,-1.563577,-7.737813,-0.069938,-0.021109,0.003572,0.006433,1.059253,2.626784,782.06,42.70,highres
4.618610,67065939996,5.558938,-1.427298,-7.774447,-0.048769,-0.005829,-0.007230,0.016099,1.056666,2.613060,782.06,42.70,highres
4.647717,67065964054,5.679582,-1.452840,-7.744428,0.035029,0.047612,-0.005571,0.016099,1.056666,2.613060,782.06,42.70,highres
4.663323,67065982320,5.681856,-1.476038,-7.776049,0.034186,0.040018,-0.015800,0.016099,1.056666,2.613060,782.06,42.70,highres
4.678285,67065992786,5.569838,-1.477722,-7.749781,0.010585,0.021284,-0.019716,0.016099,1.056666,2.613060,782.06,42.70,highres
4.698585,67066025027,5.375665,-1.373154,-7.885991,-0.048808,-0.037204,-0.017840,0.018728,1.053116,2.619935,782.07,42.70,highres
4.718495,67066044296,5.280263,-1.355910,-7.950568,-0.027744,-0.019407,0.005002,0.018728,1.053116,2.619935,782.07,42.70,highres
4.741516,67066070141,5.369737,-1.314834,-7.933009,0.014088,0.028971,0.026069,0.018728,1.053116,2.619935,782.07,42.70,highres
4.765168,67066084462,5.408998,-1.295200,-7.843530,-0.011564,0.013514,0.049893,0.019353,1.053610,2.617150,782.07,42.70,highres
4.780737,67066106694,5.579394,-1.562080,-8.078241,-0.024110,-0.024943,0.056365,0.019353,1.053610,2.617150,782.07,42.70,highres
4.797824,67066127000,5.567161,-1.635688,-8.261928,-0.006311,0.016503,0.028104,0.019353,1.053610,2.617150,782.07,42.70,highres
4.818657,67066149243,5.590504,-1.599456,-8.152001,0.016938,0.093505,0.021676,0.019353,1.053610,2.617150,782.07,42.70,highres
4.837041,67066164145,5.566371,-1.624971,-7.924084,-0.000981,0.101036,0.024792,0.013089,1.053506,2.619712,782.07,42.70,highres
4.863662,67066187174,5.588387,-1.572014,-7.578324,-0.049509,0.066989,0.013395,0.013089,1.053506,2.619712,782.07,42.70,highres
4.877486,67066205274,5.558022,-1.468057,-7.364681,-0.060121,0.030965,0.012712,0.013089,1.053506,2.619712,782.07,42.70,highres
4.899580,67066229482,5.626444,-1.407156,-7.302251,-0.030759,-0.034508,0.007042,0.013704,1.052364,2.614279,782.07,42.70,highres
4.917965,67066247303,5.657225,-1.356770,-7.526961,-0.009232,-0.081172,0.018147,0.013704,1.052364,2.614279,782.07,42.70,highres
4.946071,67066259728,5.640455,-1.432096,-7.898378,-0.009628,-0.098786,0.033966,0.013704,1.052364,2.614279,782.08,42.70,highres
4.964047,67066284537,5.651314,-1.749765,-8.255973,-0.019018,-0.049881,0.024786,0.013704,1.052364,2.614279,782.08,42.70,highres
4.984085,67066302582,5.627895,-1.772739,-8.174447,-0.027424,-0.004929,-0.024999,0.015595,1.061260,2.621156,782.08,42.70,highres
4.997349,67066327308,5.511697,-1.400061,-7.944835,-0.010564,0.006936,-0.052857,0.015595,1.061260,2.621156,782.08,42.70,highres
5.019587,67066345315,5.413476,-1.249872,-7.950573,-0.002931,0.004034,-0.029798,0.015595,1.061260,2.621156,782.07,42.70,highres
5.047481,67066367559,5.395199,-1.273295,-7.888607,-0.020166,0.011852,-0.014883,0.011981,1.053434,2.623557,782.07,42.70,highres
5.063261,67066389250,5.314276,-1.013815,-7.823267,0.018278,0.019629,0.019995,0.011981,1.053434,2.623557,782.07,42.70,highres
5.076754,67066410772,5.279117,-1.216532,-7.932406,0.015986,0.024572,0.081788,0.011981,1.053434,2.623557,782.07,42.70,highres
5.101293,67066427245,5.398715,-1.514960,-7.903294,0.001578,0.023564,0.094119,0.011981,1.053434,2.623557,782.07,42.70,highres
5.117061,67066449628,5.549790,-1.696605,-7.908065,0.016557,0.031799,0.064185,0.009432,1.058620,2.619671,782.07,42.70,highres
5.147988,67066466889,5.674010,-1.745055,-7.939814,-0.009827,0.017927,0.045862,0.009432,1.058620,2.619671,782.07,42.70,highres
5.164720,67066489860,5.858196,-1.766910,-8.013839,-0.050093,0.011257,0.006350,0.009432,1.058620,2.619671,782.06,42.70,highres
5.184845,67066505318,5.832066,-1.596916,-7.997540,-0.058372,0.029329,-0.012649,0.008457,1.051682,2.619652,782.06,42.70,highres
5.197463,67066520708,5.703540,-1.434187,-7.779711,-0.025838,0.058707,-0.005058,0.008457,1.051682,2.619652,782.06,42.70,highres
5.222538,67066539945,5.570706,-1.542732,-7.527403,0.017396,0.073604,0.010234,0.008457,1.051682,2.619652,782.06,42.70,highres
5.247212,67066564954,5.527613,-1.632511,-7.423259,0.014456,0.007907,-0.018929,0.008457,1.051682,2.619652,782.07,42.70,highres
5.259336,67066580158,5.433877,-1.355729,-7.542396,0.004159,-0.042157,-0.028893,0.010632,1.061516,2.620631,782.07,42.70,highres
5.259336,67066597521,5.441212,-1.310543,-7.880511,-0.022595,-0.067557,-0.008836,0.010632,1.061516,2.620631,782.07,42.70,highres
5.301159,67066625688,5.666014,-1.390924,-7.987440,-0.018813,-0.037199,0.012352,0.010632,1.061516,2.620631,782.07,42.70,highres
5.317462,67066643406,5.599924,-1.323599,-7.943268,0.002138,-0.014044,0.004360,0.006838,1.056085,2.617555,782.07,42.70,highres
5.338538,67066658655,5.550831,-1.366838,-7.885321,-0.024922,-0.033839,0.016017,0.006838,1.056085,2.617555,782.07,42.70,highres
5.365329,67066683475,5.515938,-1.487554,-8.088482,-0.011303,-0.048075,-0.002734,0.006838,1.056085,2.617555,782.07,42.70,highres
5.380349,67066699983,5.306984,-1.228125,-8.212075,0.012886,-0.010124,-0.008450,0.006838,1.056085,2.617555,782.07,42.70,highres
5.398906,67066718118,5.314583,-1.301995,-8.053703,-0.016971,0.028473,0.033239,0.018482,1.057699,2.621216,782.07,42.70,highres
5.423143,67066737886,5.439032,-1.438589,-7.818286,-0.021887,0.048012,0.052774,0.018482,1.057699,2.621216,782.06,42.70,highres
5.439186,67066762901,5.564875,-1.560327,-7.824080,0.046653,0.047585,0.041994,0.018482,1.057699,2.621216,782.06,42.70,highres
5.466493,67066780554,5.590608,-1.554702,-7.898264,0.015652,0.030114,0.032220,0.018285,1.057110,2.613008,782.06,42.70,highres
5.477360,67066802745,5.621657,-1.379882,-7.831251,-0.034204,0.018682,0.041564,0.018285,1.057110,2.613008,782.06,42.70,highres
5.499379,67066817630,5.644079,-1.485904,-7.745762,-0.022050,0.031565,0.062592,0.018285,1.057110,2.613008,782.06,42.70,highres
5.530013,67066835723,5.649627,-1.665687,-7.510259,-0.010373,0.045596,0.065579,0.018285,1.057110,2.613008,782.06,42.70,highres
5.547225,67066853149,5.727547,-1.811441,-7.533305,-0.014627,0.002909,0.047838,0.010919,1.061437,2.613666,782.06,42.70,highres
5.564459,67066885704,5.701734,-1.758102,-7.828731,-0.007926,-0.084200,-0.030014,0.010919,1.061437,2.613666,782.06,42.70,highres
5.579154,67066905070,5.589454,-1.473869,-8.095299,-0.032618,-0.073169,-0.023055,0.010919,1.061437,2.613666,782.06,42.70,highres
5.597860,67066923087,5.499779,-1.459097,-8.131611,-0.047830,-0.028952,0.004105,0.015104,1.054970,2.616681,782.06,42.70,highres
5.617356,67066940664,5.509951,-1.576133,-7.986911,-0.022958,0.018232,-0.004144,0.015104,1.054970,2.616681,782.06,42.70,highres
5.638000,67066966319,5.450826,-1.456017,-7.773650,0.007628,0.007248,-0.036649,0.015104,1.054970,2.616681,782.06,42.70,highres
5.664559,67066980436,5.435258,-1.217679,-7.912293,0.002668,-0.022294,-0.022405,0.015104,1.054970,2.616681,782.07,42.70,highres
5.677298,67067010686,5.493094,-1.279457,-8.077864,-0.032844,0.008508,0.010875,0.015858,1.062677,2.622581,782.07,42.70,highres
5.700006,67067026556,5.543175,-1.193194,-7.855395,-0.015148,0.036716,0.020598,0.015858,1.062677,2.622581,782.07,42.70,highres
5.717089,67067041044,5.608648,-1.358333,-7.673182,0.030667,0.034883,0.026096,0.015858,1.062677,2.622581,782.07,42.70,highres
5.746923,67067061203,5.589839,-1.526336,-7.861707,0.029445,-0.009099,-0.016665,0.020790,1.062980,2.614699,782.06,42.70,highres
5.763432,67067080675,5.420227,-1.268183,-7.922121,-0.011438,-0.034840,-0.020403,0.020790,1.062980,2.614699,782.06,42.70,highres
5.777212,67067103294,5.471850,-1.322903,-7.885313,-0.026144,-0.034450,0.019377,0.020790,1.062980,2.614699,782.06,42.70,highres
5.796768,67067120514,5.759840,-1.600190,-8.068470,0.025397,-0.017794,0.030463,0.020790,1.062980,2.614699,782.06,42.50,highres
5.817913,67067140755,5.620178,-1.704249,-8.320391,0.014539,0.011423,0.005475,0.015376,1.057732,2.618403,782.06,42.50,highres
5.847200,67067165838,5.576176,-1.640904,-8.189639,-0.002625,0.095359,0.005327,0.015376,1.057732,2.618403,782.06,42.50,highres
5.863358,67067180884,5.525184,-1.801295,-7.985900,0.030943,0.128178,-0.003677,0.015376,1.057732,2.618403,782.06,42.50,highres
5.884236,67067205627,5.388754,-1.674407,-7.873350,-0.048207,0.097859,-0.028231,0.006525,1.049946,2.622161,782.06,42.50,highres
5.900225,67067230542,5.384768,-1.304757,-7.592487,-0.106523,0.036067,0.017084,0.006525,1.049946,2.622161,782.07,42.30,highres
5.917648,67067243688,5.488027,-1.422187,-7.634186,-0.068074,0.045947,0.031067,0.006525,1.049946,2.622161,782.07,42.30,highres
5.939545,67067266574,5.656102,-1.542694,-7.589161,-0.016105,0.078957,0.000041,0.006525,1.049946,2.622161,782.07,42.30,highres
5.966034,67067283424,5.838068,-1.405968,-7.541708,-0.008655,0.065217,-0.022858,0.016664,1.055816,2.621645,782.07,42.30,highres
5.978588,67067305807,5.887494,-1.301849,-7.546617,-0.011197,0.032066,-0.017204,0.016664,1.055816,2.621645,782.07,42.30,highres
5.999440,67067328309,5.821119,-1.333279,-7.567374,-0.052940,-0.032886,-0.017226,0.016664,1.055816,2.621645,782.07,42.30,highres
6.017068,67067348421,5.626974,-1.260933,-7.612392,-0.018113,-0.049577,-0.016380,0.019837,1.061565,2.621832,782.07,42.30,highres
6.038553,67067366822,5.330681,-1.253529,-7.703446,0.027775,-0.029012,-0.012076,0.019837,1.061565,2.621832,782.07,42.30,highres
6.065348,67067383805,5.247503,-1.235919,-7.710602,0.054475,-0.012296,0.008118,0.019837,1.061565,2.621832,782.07,42.30,highres
6.076300,67067408370,5.440658,-1.343182,-7.879086,0.022549,-0.039374,0.038603,0.019837,1.061565,2.621832,782.07,42.30,highres
6.098455,67067426145,5.517336,-1.335658,-8.014738,0.003035,-0.052762,0.053229,0.014439,1.059267,2.619160,782.07,42.30,highres
6.116961,67067443173,5.575491,-1.481679,-8.182976,-0.006604,-0.039882,0.060718,0.014439,1.059267,2.619160,782.07,42.30,highres
6.147289,67067464206,5.546057,-1.529028,-8.179526,-0.025660,-0.011260,0.064010,0.014439,1.059267,2.619160,782.07,42.30,highres
6.164001,67067483507,5.582000,-1.600838,-8.178245,-0.022607,0.035206,0.057433,0.018143,1.059967,2.613779,782.07,42.30,highres
6.180325,67067504003,5.592037,-1.570460,-8.001091,-0.009783,0.087923,0.055103,0.018143,1.059967,2.613779,782.07,42.30,highres
6.200426,67067522428,5.604441,-1.666573,-7.847232,-0.000608,0.108320,0.046586,0.018143,1.059967,2.613779,782.07,42.30,highres
6.217569,67067536445,5.503104,-1.600608,-7.835210,-0.036348,0.094921,0.037814,0.018143,1.059967,2.613779,782.07,42.30,highres
6.247048,67067556428,5.511191,-1.441156,-7.750054,-0.119777,0.048830,0.064462,0.021329,1.054594,2.612441,782.07,42.30,highres
6.264681,67067573871,5.638461,-1.522163,-7.749693,-0.124203,0.053824,0.094503,0.021329,1.054594,2.612441,782.07,42.30,highres
6.264681,67067605565,5.962267,-1.425668,-7.313469,-0.018659,0.128500,0.020636,0.021329,1.054594,2.612441,782.07,42.30,highres
6.305076,67067618498,5.921443,-1.126159,-7.265249,0.008355,0.100295,-0.017797,0.015956,1.059875,2.610975,782.07,42.30,highres
6.317928,67067642093,5.817354,-0.879149,-7.264535,-0.027695,-0.046485,0.016133,0.015956,1.059875,2.610975,782.07,42.30,highres
6.347322,67067668075,5.453156,-1.105608,-7.802543,-0.044263,-0.149177,0.066793,0.015956,1.059875,2.610975,782.07,42.30,highres
6.364168,67067688682,5.267597,-1.389420,-8.139393,-0.060379,-0.098464,0.088166,0.015956,1.059875,2.610975,782.07,42.30,highres
6.379562,67067706519,5.435846,-1.571255,-8.125578,-0.031229,-0.026556,0.088875,0.021648,1.059513,2.618065,782.07,42.30,highres
6.397063,67067723621,5.625068,-1.582444,-7.884602,0.034011,0.028168,0.063044,0.021648,1.059513,2.618065,782.07,42.30,highres
6.429896,67067744397,5.682151,-1.515389,-7.786350,0.048935,0.011590,0.060251,0.021648,1.059513,2.618065,782.07,42.30,highres
6.437539,67067758770,5.735239,-1.693757,-7.837259,0.026169,-0.033332,0.059682,0.011489,1.062116,2.616000,782.07,42.30,highres
6.464016,67067779076,5.806554,-1.882081,-8.159474,-0.003495,-0.056048,-0.003287,0.011489,1.062116,2.616000,782.06,42.30,highres
6.477981,67067796339,5.648269,-1.338770,-8.252816,-0.017994,-0.021220,-0.062794,0.011489,1.062116,2.616000,782.06,42.30,highres
6.504248,67067816888,5.661465,-1.221594,-8.148420,0.016602,0.064819,-0.021866,0.011489,1.062116,2.616000,782.06,42.30,highres
6.517613,67067841484,5.661810,-1.464676,-7.599587,0.024543,0.127433,0.014480,0.012267,1.060784,2.615351,782.06,42.30,highres
6.547252,67067867189,5.581926,-1.503243,-7.340178,0.017229,0.094260,0.004303,0.012267,1.060784,2.615351,782.06,42.30,highres
6.564561,67067882232,5.466463,-1.510211,-7.316736,-0.017912,-0.008179,-0.010565,0.012267,1.060784,2.615351,782.06,42.30,highres
6.577126,67067902266,5.448023,-1.327276,-7.542902,-0.035017,-0.060713,0.008372,0.021493,1.053782,2.612949,782.06,42.30,highres
6.597545,67067924719,5.533598,-1.419436,-7.782375,-0.005696,-0.036584,0.048994,0.021493,1.053782,2.612949,782.06,42.30,highres
6.618497,67067946842,5.679805,-1.521309,-7.688344,0.007006,-0.012444,0.073291,0.021493,1.053782,2.612949,782.06,42.30,highres
6.639366,67067961790,5.806537,-1.775916,-7.653649,0.012020,-0.027726,0.071901,0.021493,1.053782,2.612949,782.06,42.30,highres
6.664435,67067978546,5.944335,-1.852795,-7.876231,-0.019712,-0.070422,0.011804,0.015306,1.059889,2.615663,782.06,42.30,highres
6.676441,67068003132,5.761679,-1.367272,-8.185928,-0.015033,-0.061854,-0.039640,0.015306,1.059889,2.615663,782.06,42.30,highres
6.702082,67068025264,5.658488,-1.375144,-8.266259,-0.022696,-0.007030,-0.011247,0.015306,1.059889,2.615663,782.06,42.30,highres
6.717968,67068046463,5.563580,-1.567435,-8.009601,-0.027283,0.036942,-0.014938,0.020136,1.056878,2.614583,782.06,42.30,highres
6.747069,67068068824,5.349303,-1.368691,-7.629190,-0.016754,0.015100,-0.026999,0.020136,1.056878,2.614583,782.06,42.30,highres
6.763949,67068082463,5.311383,-1.277860,-7.635681,-0.005033,-0.001878,-0.022670,0.020136,1.056878,2.614583,782.06,42.30,highres
6.776963,67068104593,5.300702,-1.184080,-7.781590,-0.005390,-0.004819,0.004401,0.020136,1.056878,2.614583,782.06,42.30,highres
6.798620,67068121887,5.377912,-1.157885,-7.798449,0.008892,0.013728,0.040473,0.019167,1.063770,2.621148,782.06,42.30,highres
6.819200,67068136545,5.559974,-1.307288,-7.872349,0.034153,0.036617,0.061741,0.019167,1.063770,2.621148,782.06,42.30,highres
6.847042,67068164208,5.711643,-1.439154,-7.861164,0.029430,0.031527,0.065182,0.019167,1.063770,2.621148,782.07,42.30,highres
6.864525,67068189310,5.759709,-1.705292,-7.839403,-0.009503,0.009770,0.049275,0.018173,1.054843,2.615174,782.07,42.30,highres
6.882566,67068207192,5.711357,-1.585611,-7.780017,-0.019051,-0.003390,0.006430,0.018173,1.054843,2.615174,782.07,42.30,highres
6.898332,67068226740,5.689917,-1.463499,-7.840952,-0.006999,-0.000097,0.011638,0.018173,1.054843,2.615174,782.07,42.30,highres
6.926359,67068246681,5.816156,-1.730519,-7.995192,-0.022488,0.005965,0.010820,0.018173,1.054843,2.615174,782.07,42.30,highres
6.946616,67068263536,5.787704,-1.672592,-7.892677,-0.035429,0.019889,-0.015891,0.012936,1.057647,2.613873,782.07,42.30,highres
6.967527,67068287092,5.654894,-1.460097,-7.612671,-0.030228,0.019825,-0.027545,0.012936,1.057647,2.613873,782.07,42.30,highres
6.979043,67068299084,5.554291,-1.399559,-7.548744,-0.013281,-0.000505,-0.023473,0.012936,1.057647,2.613873,782.07,42.30,highres
7.007641,67068327395,5.361373,-1.413638,-7.812860,0.020862,-0.019780,0.004697,0.013296,1.055130,2.621474,782.07,42.30,highres
7.017694,67068337580,5.349160,-1.392426,-7.895234,0.020428,-0.005053,0.010453,0.013296,1.055130,2.621474,782.06,42.30,highres
7.046820,67068367484,5.509260,-1.428219,-7.850070,0.001286,0.012555,0.018135,0.013296,1.055130,2.621474,782.06,42.30,highres
7.063684,67068387317,5.710654,-1.443801,-7.776081,-0.036559,-0.021901,0.013189,0.013296,1.055130,2.621474,782.06,42.30,highres
7.086788,67068406963,5.820737,-1.357855,-7.929692,-0.011738,-0.019909,0.000458,0.014221,1.058359,2.619873,782.06,42.30,highres
7.100134,67068422443,5.663709,-1.248141,-7.984429,-0.000518,0.003127,0.012332,0.014221,1.058359,2.619873,782.06,42.30,highres
7.126682,67068444567,5.601181,-1.385528,-7.820851,0.023054,0.037922,0.035275,0.014221,1.058359,2.619873,782.06,42.30,highres
7.147356,67068460646,5.534164,-1.554645,-7.674227,0.017452,0.035774,0.015686,0.015290,1.057463,2.622802,782.06,42.30,highres
7.163840,67068479126,5.543340,-1.321663,-7.670211,0.006811,0.000469,0.010815,0.015290,1.057463,2.622802,782.06,42.30,highres
7.178371,67068500263,5.594547,-1.543535,-7.856197,-0.020590,-0.033972,0.031656,0.015290,1.057463,2.622802,782.07,42.30,highres
7.198274,67068530288,5.566286,-1.564004,-7.975470,-0.002890,0.003154,0.024855,0.015290,1.057463,2.622802,782.07,42.30,highres
7.218682,67068547206,5.518837,-1.555503,-7.960071,-0.017351,0.023320,0.020579,0.014544,1.055985,2.612106,782.07,42.30,highres
7.238352,67068570657,5.538387,-1.504427,-7.772798,-0.027987,0.019887,0.040757,0.014544,1.055985,2.612106,782.07,42.30,highres
7.263280,67068585117,5.671315,-1.751720,-7.769852,-0.011944,0.008604,0.028423,0.014544,1.055985,2.612106,782.06,42.30,highres
7.267841,67068609739,5.786786,-1.552108,-7.864823,-0.000966,0.016566,-0.021994,0.021214,1.054764,2.609527,782.06,42.30,highres
7.308955,67068630172,5.732533,-1.268452,-7.803835,-0.017507,0.017195,-0.004012,0.021214,1.054764,2.609527,782.06,42.30,highres
7.317999,67068648222,5.712912,-1.321238,-7.733438,0.000107,0.024426,0.022796,0.021214,1.054764,2.609527,782.06,42.30,highres
7.347201,67068669853,5.598794,-1.613865,-7.642827,0.032161,0.019224,-0.006656,0.021214,1.054764,2.609527,782.07,42.30,highres
7.363086,67068680461,5.565663,-1.593223,-7.702737,0.012315,-0.002195,-0.029669,0.014639,1.057190,2.615679,782.07,42.30,highres
7.384477,67068702756,5.488110,-1.344022,-7.815892,-0.035709,-0.040921,-0.029989,0.014639,1.057190,2.615679,782.07,42.30,highres
7.397632,67068719597,5.484343,-1.222433,-7.961848,-0.035046,-0.033176,0.000670,0.014639,1.057190,2.615679,782.07,42.30,highres
7.418157,67068740926,5.476453,-1.221039,-7.850872,-0.015519,0.019029,0.043308,0.018087,1.058308,2.618829,782.06,42.30,highres
7.438165,67068759708,5.520997,-1.353016,-7.702889,0.009869,0.040918,0.073281,0.018087,1.058308,2.618829,782.06,42.30,highres
7.465357,67068780501,5.681730,-1.621861,-7.667783,0.032933,0.031394,0.067220,0.018087,1.058308,2.618829,782.06,42.30,highres
7.477590,67068804681,5.857934,-1.757389,-7.924922,0.008940,-0.003527,0.013610,0.018087,1.058308,2.618829,782.06,42.30,highres
7.498386,67068823398,5.795627,-1.508965,-7.945938,-0.044273,-0.032779,-0.012316,0.016236,1.058171,2.615432,782.06,42.30,highres
7.517348,67068844084,5.701185,-1.375145,-7.999041,-0.056904,-0.025861,0.000015,0.016236,1.058171,2.615432,782.06,42.30,highres
7.547041,67068867557,5.531916,-1.454145,-7.885437,-0.029852,0.032944,0.027092,0.016236,1.058171,2.615432,782.06,42.30,highres
7.564876,67068882805,5.511057,-1.677535,-7.706244,-0.007256,0.045301,0.013920,0.011223,1.051527,2.619154,782.06,42.30,highres
7.586629,67068902843,5.541782,-1.489464,-7.619661,0.013376,0.029732,-0.027816,0.011223,1.051527,2.619154,782.06,42.30,highres
7.598832,67068927960,5.597388,-1.167545,-7.661821,-0.003006,-0.014091,0.007591,0.011223,1.051527,2.619154,782.06,42.30,highres
7.619612,67068943029,5.722991,-1.352963,-7.808017,-0.006907,-0.020482,0.043388,0.011223,1.051527,2.619154,782.06,42.30,highres
7.647557,67068964762,5.707297,-1.632585,-7.826226,0.038781,0.011964,0.036502,0.015335,1.057217,2.616796,782.06,42.30,highres
7.664843,67068985051,5.707878,-1.754193,-7.864409,0.030357,0.018036,-0.011837,0.015335,1.057217,2.616796,782.06,42.30,highres
7.677646,67069007713,5.590164,-1.426966,-7.745868,-0.040825,-0.035437,-0.024956,0.015335,1.057217,2.616796,782.06,42.30,highres
7.699620,67069027497,5.554507,-1.272902,-7.874300,-0.038074,-0.034410,0.020715,0.017956,1.056073,2.618130,782.06,42.30,highres
7.716401,67069048274,5.618973,-1.503153,-7.986709,-0.011612,0.023370,0.026799,0.017956,1.056073,2.618130,782.06,42.30,highres
7.747755,67069066554,5.590511,-1.494757,-7.741608,-0.037225,0.026563,0.010417,0.017956,1.056073,2.618130,782.07,42.30,highres
7.765585,67069083467,5.580004,-1.315270,-7.588580,-0.028742,-0.012735,0.021549,0.017956,1.056073,2.618130,782.07,42.30,highres
7.779067,67069100353,5.501684,-1.412398,-7.720610,-0.003814,-0.039130,0.045260,0.024066,1.057791,2.610305,782.07,42.30,highres
7.798125,67069127583,5.668168,-1.680698,-8.070775,0.034813,-0.001568,0.016355,0.024066,1.057791,2.610305,782.07,42.30,highres
7.819617,67069144978,5.671258,-1.548825,-8.016429,-0.004121,0.028635,0.000898,0.024066,1.057791,2.610305,782.06,42.15,highres
7.847213,67069167766,5.742488,-1.326065,-7.803931,0.003068,0.041638,0.018786,0.016705,1.050247,2.618768,782.06,42.15,highres
7.863852,67069184944,5.695530,-1.498556,-7.711444,0.020650,0.042888,0.021392,0.016705,1.050247,2.618768,782.06,42.15,highres
7.876446,67069203522,5.660485,-1.573855,-7.572891,0.002537,0.005876,-0.006605,0.016705,1.050247,2.618768,782.06,42.15,highres
7.900647,67069223216,5.622012,-1.513987,-7.689897,-0.009057,-0.046926,-0.025722,0.016705,1.050247,2.618768,782.06,42.00,highres
7.923920,67069247798,5.471579,-1.271704,-8.047377,-0.030590,-0.023757,0.007007,0.017354,1.055657,2.623466,782.06,42.00,highres
7.938317,67069265747,5.490282,-1.331373,-7.928340,-0.024036,0.024508,0.043486,0.017354,1.055657,2.623466,782.06,42.00,highres
7.963894,67069288892,5.600863,-1.600329,-7.666259,0.015257,0.038046,0.029065,0.017354,1.055657,2.623466,782.06,42.00,highres
7.977413,67069303282,5.644924,-1.491945,-7.686219,0.012486,-0.004096,0.004810,0.016174,1.052168,2.615746,782.05,42.00,highres
7.997399,67069320275,5.626235,-1.399465,-7.852304,-0.017185,-0.043327,0.015635,0.016174,1.052168,2.615746,782.05,42.00,highres
8.019192,67069341000,5.671101,-1.669335,-8.077007,-0.019383,-0.016726,0.031796,0.016174,1.052168,2.615746,782.05,42.00,highres
8.037256,67069362861,5.685768,-1.540846,-7.898264,-0.015533,0.047732,-0.008675,0.016174,1.052168,2.615746,782.05,42.00,highres
8.063114,67069373426,5.657048,-1.366028,-7.782988,-0.010314,0.051598,-0.009768,0.018902,1.053708,2.615674,782.05,42.00,highres
8.077889,67069400711,5.615934,-1.485167,-7.718622,-0.037842,0.008767,0.016608,0.018902,1.053708,2.615674,782.05,42.00,highres
8.099787,67069417524,5.612968,-1.448436,-7.646359,-0.025979,0.007269,0.007708,0.018902,1.053708,2.615674,782.05,42.00,highres
8.117053,67069440699,5.690038,-1.500448,-7.659504,0.020943,0.009891,0.002149,0.015412,1.061116,2.611438,782.05,42.00,highres
8.146138,67069458088,5.683889,-1.467392,-7.834971,-0.006182,-0.027727,-0.006202,0.015412,1.061116,2.611438,782.07,42.00,highres
8.167212,67069467596,5.629362,-1.366766,-7.961931,-0.033733,-0.049907,-0.005065,0.015412,1.061116,2.611438,782.07,42.00,highres
8.185444,67069505063,5.546451,-1.513653,-8.013107,0.020009,0.042117,0.033144,0.015412,1.061116,2.611438,782.07,42.00,highres
8.197916,67069528835,5.608406,-1.661756,-7.719894,-0.003527,0.044957,-0.011746,0.014686,1.052253,2.613357,782.07,42.00,highres
8.226001,67069545623,5.561368,-1.339729,-7.525010,-0.045878,-0.021152,-0.019311,0.014686,1.052253,2.613357,782.07,42.00,highres
8.238788,67069568090,5.492852,-1.139326,-7.790246,-0.053378,-0.061928,0.038677,0.014686,1.052253,2.613357,782.07,42.00,highres
8.265696,67069586296,5.539016,-1.361472,-7.932481,-0.000912,-0.002452,0.060671,0.017032,1.057765,2.605600,782.07,42.00,highres
8.265696,67069605273,5.656538,-1.675511,-7.860051,0.057127,0.068495,0.024340,0.017032,1.057765,2.605600,782.07,42.00,highres
8.306046,67069622008,5.630435,-1.412574,-7.728212,0.029796,0.038756,-0.010385,0.017032,1.057765,2.605600,782.07,42.00,highres
8.319636,67069638459,5.528938,-1.255021,-7.712227,-0.063741,-0.061973,0.023761,0.017032,1.057765,2.605600,782.07,42.00,highres
8.338959,67069665607,5.645015,-1.513327,-8.054099,-0.040877,-0.067118,0.065954,0.012668,1.055459,2.617558,782.07,42.00,highres
8.364082,67069678343,5.811236,-1.704218,-8.248878,0.002953,-0.010896,0.050829,0.012668,1.055459,2.617558,782.07,42.00,highres
8.379002,67069706377,5.825245,-1.644935,-7.941528,0.007744,0.087360,-0.018473,0.012668,1.055459,2.617558,782.07,42.00,highres
8.399606,67069716213,5.790627,-1.485347,-7.790082,0.007387,0.093955,-0.028914,0.017338,1.062863,2.607972,782.07,42.00,highres
8.419455,67069738778,5.679576,-1.466565,-7.503500,-0.010347,0.058426,-0.017198,0.017338,1.062863,2.607972,782.07,42.00,highres
8.446060,67069766920,5.469705,-1.237723,-7.361192,-0.062711,-0.046506,-0.011489,0.017338,1.062863,2.607972,782.07,42.00,highres
8.464652,67069785983,5.386576,-1.214556,-7.555487,-0.019447,-0.059781,0.021294,0.017338,1.062863,2.607972,782.07,42.00,highres
8.483250,67069808157,5.394332,-1.297214,-7.768877,0.037812,-0.012627,0.049800,0.015317,1.053065,2.622844,782.07,42.00,highres
8.498611,67069827008,5.634150,-1.575052,-7.769207,0.022673,-0.014589,0.041030,0.015317,1.053065,2.622844,782.07,42.00,highres
8.523745,67069848428,5.764159,-1.478637,-7.871336,-0.048952,-0.086577,0.016046,0.015317,1.053065,2.622844,782.07,42.00,highres
8.546841,67069868971,5.710788,-1.385858,-8.125726,-0.062744,-0.093547,0.019620,0.023183,1.051013,2.612224,782.07,42.00,highres
8.565789,67069883418,5.613770,-1.352213,-8.065630,-0.047271,-0.066207,0.037365,0.023183,1.051013,2.612224,782.07,42.00,highres
8.578237,67069903003,5.641185,-1.539144,-8.192712,-0.004027,0.007635,0.033381,0.023183,1.051013,2.612224,782.07,42.00,highres
8.603616,67069921193,5.580444,-1.672279,-7.847438,0.035501,0.080799,0.015906,0.023183,1.051013,2.612224,782.08,42.00,highres
8.618313,67069951995,5.565847,-1.456195,-7.689096,0.006873,0.034714,-0.026747,0.016083,1.055311,2.616591,782.08,42.00,highres
8.638644,67069968433,5.422559,-1.299107,-7.754359,0.003632,0.014810,-0.003547,0.016083,1.055311,2.616591,782.08,42.00,highres
8.664677,67069988380,5.555913,-1.351675,-7.849235,-0.006619,0.022830,0.018313,0.016083,1.055311,2.616591,782.08,42.00,highres
8.676625,67070006154,5.603529,-1.377166,-7.691463,-0.048872,0.000831,0.015233,0.015525,1.051481,2.616792,782.08,42.00,highres
8.701532,67070029234,5.659053,-1.257558,-7.659823,-0.029330,-0.023535,0.037326,0.015525,1.051481,2.616792,782.08,42.00,highres
8.719599,67070051165,5.681436,-1.677392,-7.921865,0.003132,-0.015036,0.011995,0.015525,1.051481,2.616792,782.08,42.00,highres
8.746773,67070069152,5.594409,-1.507789,-7.958424,0.015045,0.012344,-0.017973,0.015525,1.051481,2.616792,782.08,42.00,highres
8.764606,67070078865,5.541532,-1.354516,-7.910826,-0.023704,0.010270,-0.017278,0.015032,1.060530,2.620166,782.08,42.00,highres
8.778169,67070102020,5.698411,-1.376682,-7.898075,-0.058940,-0.021273,0.029496,0.015032,1.060530,2.620166,782.08,42.00,highres
8.798039,67070117426,5.670652,-1.587114,-7.882773,-0.039605,-0.010521,0.038553,0.015032,1.060530,2.620166,782.08,42.00,highres
8.817599,67070141541,5.646768,-1.501369,-7.722724,-0.015049,0.034482,-0.009313,0.019533,1.056114,2.622316,782.08,42.00,highres
8.847378,67070158998,5.555438,-1.392136,-7.529089,-0.006714,0.018932,-0.017179,0.019533,1.056114,2.622316,782.08,42.00,highres
8.865807,67070178678,5.532052,-1.322549,-7.778845,-0.014173,-0.042766,-0.006245,0.019533,1.056114,2.622316,782.07,42.00,highres
8.877602,67070202302,5.423261,-1.268851,-8.054572,-0.010487,-0.034244,0.025969,0.019533,1.056114,2.622316,782.07,42.00,highres
8.898620,67070221489,5.533423,-1.490489,-7.951867,0.046527,0.046445,0.040802,0.016026,1.053847,2.620089,782.07,42.00,highres
8.924750,67070239187,5.650333,-1.576234,-7.833075,0.023105,0.059217,0.015455,0.016026,1.053847,2.620089,782.07,42.00,highres
8.947024,67070259468,5.768039,-1.467958,-7.758447,-0.033919,0.000371,-0.005550,0.016026,1.053847,2.620089,782.08,42.00,highres
8.964427,67070279462,5.738535,-1.454533,-7.898068,-0.041387,-0.028028,-0.011244,0.019237,1.056423,2.621743,782.08,42.00,highres
8.983505,67070306433,5.575741,-1.311701,-7.707094,-0.056324,-0.029386,-0.000743,0.019237,1.056423,2.621743,782.08,42.00,highres
8.997735,67070321767,5.482856,-1.366129,-7.700975,-0.028641,-0.028800,0.012239,0.019237,1.056423,2.621743,782.08,42.00,highres
9.027293,67070346817,5.448607,-1.426618,-7.765616,0.014044,-0.016516,0.012434,0.019237,1.056423,2.621743,782.08,42.00,highres
9.037637,67070359219,5.577069,-1.459404,-7.836603,0.036662,0.000723,0.010608,0.016063,1.060787,2.618397,782.08,42.00,highres
9.064759,67070382327,5.739979,-1.511040,-7.886204,-0.034916,-0.024054,-0.010523,0.016063,1.060787,2.618397,782.08,42.00,highres
9.077225,67070409108,5.677361,-1.224419,-7.879321,-0.043518,-0.038018,0.016907,0.016063,1.060787,2.618397,782.08,42.00,highres
9.097825,67070429236,5.524470,-1.368560,-7.955113,0.031218,0.015640,0.035608,0.012392,1.049962,2.622076,782.08,42.00,highres
9.117849,67070444526,5.492116,-1.640258,-7.902104,0.059412,0.047607,0.012864,0.012392,1.049962,2.622076,782.08,42.00,highres
9.146224,67070466448,5.507082,-1.430715,-7.785131,0.027830,0.022140,-0.025261,0.012392,1.049962,2.622076,782.08,42.00,highres
9.163811,67070482183,5.514785,-1.247195,-7.898443,-0.003948,-0.014814,-0.004567,0.012392,1.049962,2.622076,782.08,42.00,highres
9.178190,67070501999,5.581942,-1.333871,-7.948001,-0.036682,-0.008562,0.023014,0.019336,1.057953,2.618771,782.08,42.00,highres
9.199985,67070524838,5.570455,-1.386894,-7.718102,-0.046398,0.006022,0.018261,0.019336,1.057953,2.618771,782.08,42.00,highres
9.218904,67070543201,5.596298,-1.442701,-7.656333,-0.008295,-0.005433,0.014006,0.019336,1.057953,2.618771,782.08,42.00,highres
9.243812,67070564438,5.504287,-1.323125,-7.887599,0.003649,-0.025781,0.006120,0.020089,1.056256,2.612973,782.08,42.00,highres
9.263572,67070575380,5.532878,-1.319042,-7.949341,0.008915,-0.021278,0.020284,0.020089,1.056256,2.612973,782.08,42.00,highres
9.278192,67070606637,5.633364,-1.534975,-7.925896,0.007994,0.020256,0.015766,0.020089,1.056256,2.612973,782.08,42.00,highres
9.278192,67070625263,5.578755,-1.338810,-7.805822,0.001436,0.020560,0.006636,0.020089,1.056256,2.612973,782.08,42.00,highres
9.320122,67070642848,5.484138,-1.259793,-7.787135,0.003814,0.000593,0.036593,0.021388,1.048857,2.617883,782.08,42.00,highres
9.347906,67070668137,5.544815,-1.567100,-7.853459,0.003210,-0.007157,0.042426,0.021388,1.048857,2.617883,782.08,42.00,highres
9.364412,67070686811,5.639155,-1.567029,-7.961684,0.003413,0.005767,0.016512,0.021388,1.048857,2.617883,782.08,42.00,highres
9.378213,67070706147,5.735659,-1.455107,-7.925062,-0.052500,-0.005800,-0.000266,0.012159,1.057695,2.615076,782.08,42.00,highres
9.399245,67070724822,5.719817,-1.373375,-7.883011,-0.017992,0.009743,0.008212,0.012159,1.057695,2.615076,782.08,42.00,highres
9.418049,67070747660,5.558899,-1.397202,-7.824582,0.029272,0.046656,0.017522,0.012159,1.057695,2.615076,782.07,42.00,highres
9.447043,67070765752,5.458850,-1.445306,-7.675041,0.006027,0.027055,0.018094,0.012159,1.057695,2.615076,782.07,42.00,highres
9.463869,67070776610,5.414964,-1.442099,-7.597989,-0.000228,-0.000918,0.021096,0.012786,1.054002,2.621380,782.07,42.00,highres
9.477181,67070807381,5.489307,-1.407465,-7.934400,-0.021955,-0.041341,-0.003449,0.012786,1.054002,2.621380,782.07,42.00,highres
9.505187,67070829511,5.591830,-1.252164,-8.028967,-0.031137,-0.005175,0.030388,0.012786,1.054002,2.621380,782.07,42.00,highres
9.517227,67070844999,5.755217,-1.434480,-8.045028,0.001114,0.030761,0.041038,0.018637,1.057758,2.613926,782.07,42.00,highres
9.547237,67070869154,5.771109,-1.644728,-7.894814,-0.018737,0.028572,-0.006566,0.018637,1.057758,2.613926,782.07,42.00,highres
9.564805,67070889933,5.655293,-1.436589,-7.756034,-0.041066,0.001878,-0.024650,0.018637,1.057758,2.613926,782.07,42.00,highres
9.577395,67070903326,5.576093,-1.327482,-7.684825,-0.020092,-0.004510,-0.014795,0.018637,1.057758,2.613926,782.07,42.00,highres
9.599896,67070925219,5.428257,-1.431406,-7.715340,-0.040265,-0.005120,-0.017319,0.017717,1.057593,2.611426,782.07,42.00,highres
9.618264,67070943003,5.366510,-1.154281,-7.700127,-0.011396,0.002623,0.001058,0.017717,1.057593,2.611426,782.07,42.00,highres
9.647377,67070960074,5.455348,-1.284875,-7.700102,0.041495,0.017246,0.038197,0.017717,1.057593,2.611426,782.07,42.00,highres
9.665730,67070975306,5.628159,-1.535760,-7.756737,0.042229,0.000257,0.039669,0.021182,1.058137,2.621143,782.08,42.00,highres
9.685758,67070999428,5.665774,-1.445437,-7.911489,-0.052139,-0.082837,0.005484,0.021182,1.058137,2.621143,782.08,42.00,highres
9.699948,67071004741,5.649671,-1.346313,-8.062881,-0.064128,-0.093061,0.003641,0.021182,1.058137,2.621143,782.08,42.00,highres
9.717203,67071027923,5.544510,-1.346324,-8.210965,-0.051145,-0.067302,0.021176,0.021182,1.058137,2.621143,782.08,42.00,highres
9.746216,67071052596,5.545568,-1.549914,-7.863774,0.031415,0.084518,0.044178,0.015300,1.057273,2.620282,782.08,42.00,highres
9.765509,67071076930,5.580333,-1.571985,-7.532191,0.038558,0.094526,0.014130,0.015300,1.057273,2.620282,782.08,42.00,highres
9.785951,67071106385,5.566042,-1.414901,-7.673756,-0.007031,-0.010699,-0.015186,0.015300,1.057273,2.620282,782.08,42.00,highres
9.801010,67071128772,5.467900,-1.169167,-7.951741,-0.044562,-0.032396,0.028367,0.013884,1.059591,2.625047,782.08,42.00,highres
9.827220,67071147272,5.521936,-1.297786,-7.901631,-0.008516,0.017736,0.060405,0.013884,1.059591,2.625047,782.07,42.00,highres
9.847292,67071165494,5.622697,-1.555280,-7.818475,0.021971,0.032448,0.060712,0.013884,1.059591,2.625047,782.07,42.00,highres
9.865534,67071182979,5.762648,-1.815746,-7.837962,0.004751,0.010849,0.012618,0.013884,1.059591,2.625047,782.07,42.00,highres
9.877905,67071202982,5.608917,-1.282487,-7.808511,-0.055480,-0.048796,-0.017987,0.019913,1.055647,2.621593,782.07,42.00,highres
9.899072,67071219540,5.525707,-1.277320,-7.937970,-0.061844,-0.056400,0.025802,0.019913,1.055647,2.621593,782.07,42.00,highres
9.926313,67071240178,5.527614,-1.541707,-7.948764,-0.011674,0.000795,0.041514,0.019913,1.055647,2.621593,782.07,42.00,highres
9.939929,67071268315,5.535853,-1.401869,-7.836688,0.035973,0.057192,0.005377,0.019588,1.063198,2.617472,782.07,42.00,highres
9.965197,67071285958,5.546842,-1.272962,-7.665013,0.027672,0.030070,0.018903,0.019588,1.063198,2.617472,782.07,42.00,highres
9.978153,67071307857,5.660168,-1.562447,-7.816387,-0.001876,-0.031162,0.017886,0.019588,1.063198,2.617472,782.07,42.00,highres
10.000162,67071328118,5.565067,-1.457160,-7.997690,-0.041166,-0.044722,-0.004406,0.019588,1.063198,2.617472,782.07,42.00,highres
10.018529,67071346227,5.485614,-1.256923,-8.031197,-0.067502,-0.033682,0.020650,0.010492,1.047358,2.617105,782.07,42.00,highres
10.047025,67071368974,5.559756,-1.438668,-7.982949,0.003713,0.038032,0.041152,0.010492,1.047358,2.617105,782.07,42.00,highres
10.063526,67071390140,5.605869,-1.557160,-7.765232,0.039623,0.080614,0.013614,0.010492,1.047358,2.617105,782.07,42.00,highres
10.077920,67071399937,5.618581,-1.507013,-7.602168,0.035565,0.061212,-0.002551,0.014248,1.055847,2.619418,782.07,42.00,highres
10.098443,67071422995,5.549246,-1.269144,-7.589170,-0.055438,-0.052469,0.005312,0.014248,1.055847,2.619418,782.07,42.00,highres
10.116954,67071439992,5.528327,-1.267826,-7.924491,-0.041381,-0.071849,0.031736,0.014248,1.055847,2.619418,782.07,42.00,highres
10.147661,67071460450,5.561201,-1.470315,-8.080928,0.023309,0.012394,0.042229,0.014248,1.055847,2.619418,782.08,42.00,highres
10.164452,67071485770,5.715662,-1.652985,-7.854993,0.027673,0.056716,0.017923,0.013944,1.059786,2.617850,782.08,42.00,highres
10.178834,67071500577,5.679154,-1.486497,-7.716175,-0.015043,0.012493,-0.007557,0.013944,1.059786,2.617850,782.08,42.00,highres
10.198894,67071529208,5.587926,-1.406716,-7.819168,-0.066952,-0.062629,0.004917,0.013944,1.059786,2.617850,782.08,42.00,highres
10.218354,67071546400,5.476082,-1.386513,-7.863909,-0.041170,-0.039841,0.011787,0.020244,1.058450,2.617176,782.08,42.00,highres
10.240274,67071560705,5.401365,-1.339399,-7.867852,0.010885,0.003151,0.016472,0.020244,1.058450,2.617176,782.08,42.00,highres
10.264329,67071583582,5.460693,-1.466663,-7.885544,0.041234,0.028716,0.027805,0.020244,1.058450,2.617176,782.08,42.00,highres
10.280419,67071604880,5.681663,-1.494286,-7.804635,-0.026855,-0.006988,0.007752,0.020244,1.058450,2.617176,782.09,42.00,highres
10.280419,67071623299,5.724319,-1.383454,-7.815376,-0.045532,-0.042997,-0.003905,0.013806,1.057485,2.616724,782.09,42.00,highres
10.321116,67071647991,5.624768,-1.323735,-8.065022,-0.020815,-0.030635,0.012712,0.013806,1.057485,2.616724,782.09,42.00,highres
10.341306,67071666901,5.534225,-1.533250,-8.089564,-0.013532,0.023904,0.007036,0.013806,1.057485,2.616724,782.09,42.00,highres
10.364389,67071682942,5.483595,-1.500443,-7.914967,0.001997,0.056310,-0.019784,0.015070,1.053275,2.624915,782.09,42.00,highres
10.384832,67071698145,5.359581,-1.181202,-7.750672,0.013474,0.056272,-0.009695,0.015070,1.053275,2.624915,782.08,42.00,highres
10.398302,67071720423,5.465346,-1.317557,-7.670680,0.000493,0.014291,0.048765,0.015070,1.053275,2.624915,782.08,42.00,highres
10.419974,67071743429,5.617002,-1.529087,-7.734214,-0.032125,-0.026243,0.039345,0.015070,1.053275,2.624915,782.08,42.00,highres
10.447900,67071765395,5.641470,-1.424975,-7.910597,-0.025495,-0.028802,0.018870,0.018842,1.057887,2.622046,782.08,42.00,highres
10.464577,67071787757,5.651393,-1.474118,-7.922651,0.015467,0.020841,0.019483,0.018842,1.057887,2.622046,782.08,42.00,highres
10.481603,67071803375,5.645449,-1.455962,-7.848435,0.031189,0.042833,0.006493,0.018842,1.057887,2.622046,782.08,42.00,highres
10.506268,67071825560,5.551819,-1.330197,-7.733115,0.019618,0.026560,0.016074,0.017667,1.056372,2.618511,782.08,42.00,highres
10.518025,67071845993,5.519428,-1.504611,-7.707205,-0.035701,-0.024973,0.020848,0.017667,1.056372,2.618511,782.08,42.00,highres
10.543171,67071860960,5.475137,-1.328523,-7.860326,-0.040964,-0.058796,0.004769,0.017667,1.056372,2.618511,782.08,42.00,highres
10.563770,67071884380,5.449646,-1.305937,-8.086560,0.011783,-0.021061,0.028252,0.017667,1.056372,2.618511,782.08,42.00,highres
10.579668,67071906143,5.588100,-1.524791,-8.107142,0.017486,0.029551,0.040421,0.011362,1.052639,2.624770,782.08,42.00,highres
10.601558,67071925740,5.618136,-1.516818,-7.879978,-0.036301,0.018475,0.016124,0.011362,1.052639,2.624770,782.08,42.00,highres
10.618946,67071941044,5.606658,-1.347044,-7.827968,-0.041465,-0.000775,0.023804,0.011362,1.052639,2.624770,782.07,42.00,highres
10.647626,67071965472,5.545854,-1.426935,-7.843568,0.006640,0.024631,0.033540,0.002699,1.058311,2.625392,782.07,42.00,highres
10.663980,67071988935,5.596100,-1.545312,-7.797956,0.017910,0.028431,0.005804,0.002699,1.058311,2.625392,782.07,42.00,highres
10.678821,67072005912,5.602025,-1.451819,-7.817233,-0.000513,0.008676,-0.009292,0.002699,1.058311,2.625392,782.07,42.00,highres
10.701100,67072025827,5.551689,-1.372438,-7.858397,-0.034647,-0.008527,0.020498,0.002699,1.058311,2.625392,782.07,42.00,highres
10.717139,67072043471,5.600975,-1.468318,-7.800254,-0.037044,-0.008422,0.019678,0.013311,1.067045,2.615935,782.07,42.00,highres
10.746780,67072066913,5.574970,-1.534178,-7.780126,-0.011877,0.000684,-0.000226,0.013311,1.067045,2.615935,782.07,42.00,highres
10.763784,67072080973,5.526740,-1.367137,-7.773849,-0.014478,-0.013259,-0.011057,0.013311,1.067045,2.615935,782.07,42.00,highres
10.777755,67072095886,5.545718,-1.332853,-7.909337,-0.021040,-0.036274,0.007104,0.009799,1.058407,2.624452,782.07,42.00,highres
10.797142,67072114510,5.678281,-1.524130,-8.089127,-0.019047,-0.035630,0.022970,0.009799,1.058407,2.624452,782.07,42.00,highres
10.818397,67072130961,5.602065,-1.467372,-8.062416,-0.017511,-0.005705,0.004570,0.009799,1.058407,2.624452,782.07,42.00,highres
10.847165,67072163703,5.523015,-1.362923,-7.888447,-0.000295,0.043366,0.005537,0.009799,1.058407,2.624452,782.07,42.00,highres
10.864946,67072186757,5.436831,-1.347676,-7.800475,0.004922,0.039474,0.017183,0.009884,1.057589,2.619020,782.08,42.00,highres
10.878327,67072208378,5.453724,-1.362880,-7.616639,-0.013540,0.012417,0.026496,0.009884,1.057589,2.619020,782.08,42.00,highres
10.898669,67072229076,5.605068,-1.406873,-7.731533,-0.000644,-0.004355,0.012561,0.009884,1.057589,2.619020,782.08,42.00,highres
10.918738,67072244017,5.675566,-1.467194,-7.827320,-0.019607,-0.025204,0.003239,0.016519,1.048457,2.607251,782.08,42.00,highres
10.947183,67072265847,5.660657,-1.351071,-7.939875,-0.049266,-0.030865,0.011271,0.016519,1.048457,2.607251,782.08,42.00,highres
10.965283,67072283306,5.617284,-1.491345,-7.981844,0.001900,-0.004514,0.019947,0.016519,1.048457,2.607251,782.08,42.00,highres
10.977536,67072305213,5.522480,-1.529552,-7.963469,0.023533,0.038902,-0.000384,0.016519,1.048457,2.607251,782.08,42.00,highres
10.998554,67072326851,5.414644,-1.368885,-7.700395,-0.037692,0.002626,0.005809,0.012280,1.057944,2.615595,782.08,42.00,highres
11.016839,67072344052,5.601986,-1.479645,-7.825669,-0.022284,-0.032915,0.001898,0.012280,1.057944,2.615595,782.07,42.00,highres
11.047726,67072371001,5.564046,-1.282604,-8.079542,-0.029926,-0.007833,0.008795,0.012280,1.057944,2.615595,782.07,42.00,highres
11.063679,67072381963,5.564916,-1.216354,-8.059389,-0.026626,0.026073,0.032986,0.011903,1.052513,2.620027,782.07,42.00,highres
11.078286,67072403671,5.606102,-1.512544,-7.713191,0.013672,0.077166,0.050504,0.011903,1.052513,2.620027,782.07,42.00,highres
11.100448,67072419255,5.616392,-1.485343,-7.564658,0.026252,0.060852,0.007992,0.011903,1.052513,2.620027,782.07,42.00,highres
11.117941,67072442553,5.466758,-1.174451,-7.538930,-0.048512,-0.046466,0.016710,0.011903,1.052513,2.620027,782.07,42.00,highres
11.146957,67072461138,5.560089,-1.514679,-7.881289,-0.050100,-0.096557,0.053141,0.016042,1.051003,2.620687,782.07,42.00,highres
11.166764,67072478779,5.609880,-1.677687,-8.168348,0.013869,-0.046142,0.025413,0.016042,1.051003,2.620687,782.07,42.00,highres
11.185504,67072499177,5.566839,-1.387549,-8.097161,0.017114,0.019638,-0.004340,0.016042,1.051003,2.620687,782.07,42.00,highres
11.199328,67072519499,5.592588,-1.372602,-7.945223,-0.010282,0.027762,0.016679,0.016982,1.055043,2.619540,782.07,42.00,highres
11.218502,67072543307,5.619242,-1.528889,-7.901281,-0.005333,0.025003,0.014422,0.016982,1.055043,2.619540,782.07,42.00,highres
11.248090,67072559907,5.521406,-1.405249,-7.862085,-0.012510,0.025728,-0.010931,0.016982,1.055043,2.619540,782.07,42.00,highres
11.264677,67072588447,5.459090,-1.236221,-7.846188,-0.020163,0.015740,0.014826,0.016982,1.055043,2.619540,782.07,42.00,highres
11.277149,67072608150,5.443814,-1.259323,-7.755898,-0.023414,0.016683,0.035686,0.017000,1.057333,2.614999,782.07,42.00,highres
11.289249,67072628604,5.630459,-1.529989,-7.685918,-0.030716,-0.006582,0.032772,0.017000,1.057333,2.614999,782.07,42.00,highres
11.330038,67072651645,5.789158,-1.506074,-7.868323,-0.025980,-0.026562,0.005746,0.017000,1.057333,2.614999,782.06,42.00,highres
11.337035,67072668711,5.751517,-1.391509,-7.985776,-0.035403,-0.021190,0.005533,0.007396,1.053305,2.616818,782.06,42.00,highres
11.365244,67072686708,5.650498,-1.333311,-7.920641,-0.017549,0.016108,0.021154,0.007396,1.053305,2.616818,782.06,42.00,highres
11.378384,67072708729,5.489247,-1.519914,-7.827731,0.041943,0.054788,0.012415,0.007396,1.053305,2.616818,782.06,42.00,highres
11.399975,67072727452,5.425363,-1.457453,-7.704994,0.017558,0.032895,-0.004286,0.007396,1.053305,2.616818,782.06,42.00,highres
11.426452,67072745617,5.402254,-1.345343,-7.664768,-0.012076,-0.031435,0.007108,0.014598,1.055799,2.614969,782.07,42.00,highres
11.448154,67072764052,5.506973,-1.355514,-7.900599,-0.058309,-0.063887,0.016996,0.014598,1.055799,2.614969,782.07,42.00,highres
11.464230,67072788635,5.594637,-1.243003,-8.050992,-0.009172,0.002102,0.046628,0.014598,1.055799,2.614969,782.07,42.00,highres
11.478290,67072804049,5.717960,-1.627562,-7.960179,0.036327,0.052704,0.046520,0.024348,1.047557,2.622092,782.07,42.00,highres
11.502969,67072830295,5.821368,-1.668874,-7.844492,-0.026164,0.005027,-0.050286,0.024348,1.047557,2.622092,782.06,42.00,highres
11.517992,67072847815,5.560253,-1.137966,-7.896959,-0.063005,-0.041866,-0.035200,0.024348,1.047557,2.622092,782.06,42.00,highres
11.546883,67072868885,5.451156,-1.243900,-7.962999,-0.023786,-0.001057,0.021885,0.024348,1.047557,2.622092,782.06,42.00,highres
11.564718,67072889382,5.396841,-1.485175,-7.801714,0.015070,0.040623,0.013539,0.016868,1.053828,2.623859,782.06,42.00,highres
11.577427,67072906494,5.497853,-1.531318,-7.770197,0.006392,0.025591,-0.017753,0.016868,1.053828,2.623859,782.06,42.00,highres
11.599375,67072922008,5.546703,-1.323507,-7.794819,-0.009928,-0.002997,-0.018316,0.016868,1.053828,2.623859,782.06,42.00,highres
11.618483,67072946610,5.719091,-1.342423,-8.010157,-0.019277,-0.016185,-0.009192,0.019085,1.060116,2.614734,782.06,42.00,highres
11.648062,67072966516,5.615191,-1.237548,-7.971652,-0.030054,0.013276,0.000316,0.019085,1.060116,2.614734,782.06,42.00,highres
11.664143,67072983049,5.482910,-1.302224,-7.788190,0.006179,0.040876,0.020710,0.019085,1.060116,2.614734,782.06,42.00,highres
11.677802,67073001750,5.478728,-1.547583,-7.713089,0.015820,0.035797,0.014946,0.019085,1.060116,2.614734,782.06,42.00,highres
11.698932,67073022088,5.430134,-1.231814,-7.775576,-0.005821,0.009816,-0.008122,0.012092,1.055637,2.616604,782.06,42.00,highres
11.716605,67073050048,5.428635,-1.160658,-7.738367,-0.029403,0.004042,0.059530,0.012092,1.055637,2.616604,782.06,42.00,highres
11.746683,67073069321,5.650085,-1.497674,-7.739850,-0.021380,-0.005316,0.078231,0.012092,1.055637,2.616604,782.07,42.00,highres
11.764638,67073088476,5.792834,-1.639276,-7.890486,-0.025704,-0.013306,0.060052,0.019358,1.058936,2.625803,782.07,42.00,highres
11.778536,67073099433,5.793814,-1.678726,-7.929615,-0.038788,-0.014114,0.045066,0.019358,1.058936,2.625803,782.07,42.00,highres
11.800773,67073119452,5.800520,-1.616768,-7.869967,-0.021316,-0.000115,0.017485,0.019358,1.058936,2.625803,782.07,42.00,highres
11.819576,67073137485,5.649622,-1.431088,-7.775149,-0.005791,-0.001761,-0.006349,0.019358,1.058936,2.625803,782.07,42.00,highres
11.847034,67073159437,5.616767,-1.461383,-7.818405,-0.028598,-0.018154,-0.016780,0.010315,1.060843,2.623497,782.07,42.00,highres
11.863908,67073183198,5.635822,-1.202290,-7.627007,-0.010946,-0.009015,-0.050770,0.010315,1.060843,2.623497,782.07,42.00,highres
11.884722,67073196217,5.438867,-1.001028,-7.782800,-0.001394,-0.033988,-0.045949,0.010315,1.060843,2.623497,782.07,42.00,highres
11.899423,67073219704,5.447695,-1.237730,-8.017140,0.012965,-0.034049,0.001792,0.013941,1.063435,2.624279,782.07,42.00,highres
11.927971,67073239865,5.450163,-1.315337,-8.009262,-0.008223,-0.019872,-0.011010,0.013941,1.063435,2.624279,782.07,42.00,highres
11.946991,67073262660,5.342123,-1.078063,-7.988687,-0.060802,-0.041025,0.008039,0.013941,1.063435,2.624279,782.07,42.00,highres
11.964413,67073285228,5.404269,-1.391850,-8.040692,-0.057103,-0.025584,0.070925,0.013941,1.063435,2.624279,782.06,42.00,highres
11.978947,67073305924,5.539778,-1.521248,-8.134452,0.004723,0.030452,0.055046,0.019972,1.054432,2.621536,782.06,42.00,highres
12.007640,67073326962,5.677737,-1.584034,-8.056844,0.021014,0.076991,0.025425,0.019972,1.054432,2.621536,782.06,42.00,highres
12.018573,67073345602,5.755514,-1.513796,-7.841831,-0.013393,0.077142,0.007429,0.019972,1.054432,2.621536,782.06,42.00,highres
12.047591,67073364865,5.740882,-1.408726,-7.653237,-0.013751,0.048329,-0.004223,0.020331,1.049470,2.621018,782.06,42.00,highres
12.063468,67073379759,5.630307,-1.350776,-7.664547,-0.014122,0.028575,-0.010778,0.020331,1.049470,2.621018,782.07,42.00,highres
12.076911,67073396307,5.528132,-1.251375,-7.601551,-0.050846,-0.007175,-0.006112,0.020331,1.049470,2.621018,782.07,42.00,highres
12.098518,67073423442,5.480556,-1.256395,-7.640308,-0.032383,-0.037888,0.020936,0.020331,1.049470,2.621018,782.07,42.00,highres
12.118960,67073442735,5.551835,-1.418836,-7.837480,0.033318,-0.014263,0.015816,0.018628,1.051604,2.617880,782.07,42.00,highres
12.147555,67073460473,5.547712,-1.405478,-7.847140,0.025778,-0.003890,-0.000962,0.018628,1.051604,2.617880,782.06,42.00,highres
12.165646,67073475096,5.604620,-1.244004,-7.987135,-0.017949,-0.036444,-0.007583,0.018628,1.051604,2.617880,782.06,42.00,highres
12.178900,67073496901,5.614523,-1.232441,-8.248416,-0.037248,-0.059555,0.024900,0.024430,1.054277,2.616751,782.06,42.00,highres
12.198072,67073517366,5.567514,-1.472889,-8.223628,-0.029470,-0.010848,0.040588,0.024430,1.054277,2.616751,782.06,42.00,highres
12.219740,67073540307,5.550838,-1.453344,-7.898999,-0.014940,0.055589,0.008980,0.024430,1.054277,2.616751,782.06,42.00,highres
12.247663,67073563054,5.454510,-1.340237,-7.707403,0.006253,0.058252,0.003720,0.024430,1.054277,2.616751,782.06,42.00,highres
12.265404,67073584989,5.512277,-1.349203,-7.664774,-0.036964,0.015648,0.010438,0.019937,1.057661,2.618276,782.06,42.00,highres
12.278820,67073607877,5.618095,-1.235660,-7.651101,-0.018128,0.000752,0.014268,0.019937,1.057661,2.618276,782.06,42.00,highres
12.289897,67073625632,5.672651,-1.187271,-7.689148,0.001521,-0.004511,0.030291,0.019937,1.057661,2.618276,782.06,42.00,highres
12.289897,67073645759,5.699868,-1.327922,-7.756436,0.019108,-0.011230,0.030750,0.022222,1.050892,2.622331,782.06,42.00,highres
12.338921,67073662707,5.652812,-1.462464,-7.833572,0.028344,-0.013384,0.016931,0.022222,1.050892,2.622331,782.06,42.00,highres
12.365728,67073682802,5.562706,-1.518363,-8.010121,0.000912,-0.028406,-0.011643,0.022222,1.050892,2.622331,782.06,42.00,highres
12.381009,67073704978,5.458327,-1.298361,-8.008307,-0.048707,-0.044971,-0.011684,0.022222,1.050892,2.622331,782.07,42.00,highres
12.400066,67073726267,5.436108,-1.267947,-8.034622,-0.020691,-0.012794,0.013136,0.012260,1.050987,2.622577,782.07,42.00,highres
12.418366,67073746067,5.456074,-1.294259,-8.012082,-0.005153,0.023987,0.025356,0.012260,1.050987,2.622577,782.07,42.00,highres
12.447113,67073767586,5.601916,-1.395620,-7.840225,-0.017928,0.022125,0.017319,0.012260,1.050987,2.622577,782.07,42.00,highres
12.465395,67073785911,5.661876,-1.429075,-7.859129,-0.020776,0.001903,-0.005445,0.019748,1.053196,2.618074,782.07,42.00,highres
12.478822,67073807827,5.525516,-1.221160,-7.921899,-0.034331,0.002693,-0.010269,0.019748,1.053196,2.618074,782.07,42.00,highres
12.500401,67073826585,5.490213,-1.148012,-7.879704,-0.015947,0.033369,0.016612,0.019748,1.053196,2.618074,782.07,42.00,highres
12.518845,67073845716,5.499883,-1.129833,-7.743711,0.024120,0.064116,0.037572,0.019748,1.053196,2.618074,782.07,42.00,highres
12.547366,67073870200,5.565197,-1.264871,-7.522744,0.015896,0.023166,0.050204,0.016535,1.054154,2.628515,782.06,42.00,highres
12.564102,67073885563,5.595205,-1.382246,-7.462072,-0.026385,-0.055953,0.046812,0.016535,1.054154,2.628515,782.06,42.00,highres
12.579390,67073908469,5.693444,-1.563978,-7.835348,-0.012269,-0.106697,0.024177,0.016535,1.054154,2.628515,782.06,42.00,highres
12.598286,67073926180,5.726017,-1.592754,-8.402016,-0.008234,-0.064847,-0.000312,0.021136,1.049755,2.623278,782.06,42.00,highres
12.617388,67073942515,5.651157,-1.571959,-8.473647,-0.032174,-0.004538,0.001983,0.021136,1.049755,2.623278,782.06,42.00,highres
12.638181,67073957350,5.649906,-1.547583,-8.085372,-0.016056,0.057991,-0.009387,0.021136,1.049755,2.623278,782.06,42.00,highres
12.663906,67073980634,5.515519,-1.330028,-7.757923,0.013600,0.079621,-0.031323,0.021136,1.049755,2.623278,782.06,42.00,highres
12.680235,67073997908,5.470348,-1.316553,-7.619720,-0.007681,0.047432,-0.029816,0.014668,1.046389,2.617987,782.06,42.00,highres
12.698722,67074017961,5.447825,-1.072550,-7.692008,-0.050298,-0.006487,-0.036937,0.014668,1.046389,2.617987,782.06,42.00,highres
12.721952,67074037663,5.403916,-0.977209,-7.850904,-0.025373,0.004434,0.009506,0.014668,1.046389,2.617987,782.06,42.00,highres
12.746982,67074060619,5.520114,-1.317429,-7.726504,0.017020,0.055198,0.040555,0.012506,1.047706,2.619950,782.06,42.00,highres
12.766613,67074085535,5.600953,-1.386502,-7.553091,0.000610,-0.002742,0.014743,0.012506,1.047706,2.619950,782.06,42.00,highres
12.777159,67074103327,5.597474,-1.265610,-7.753269,-0.042009,-0.078062,0.003787,0.012506,1.047706,2.619950,782.06,42.00,highres
12.798183,67074119326,5.605611,-1.285427,-7.997488,-0.040422,-0.092067,0.015620,0.012506,1.047706,2.619950,782.06,42.00,highres
12.818146,67074138120,5.611435,-1.338939,-8.215562,0.021068,-0.007260,0.025404,0.016679,1.047906,2.617488,782.06,42.00,highres
12.847237,67074160273,5.650587,-1.491927,-7.976923,0.022107,0.064150,0.022228,0.016679,1.047906,2.617488,782.06,42.00,highres
12.863640,67074182992,5.614292,-1.388741,-7.683984,-0.006584,0.027350,-0.008898,0.016679,1.047906,2.617488,782.06,42.00,highres
12.876631,67074197543,5.590702,-1.263728,-7.750923,-0.017111,-0.020547,-0.021515,0.022424,1.045313,2.622614,782.06,42.00,highres
12.900842,67074225442,5.462366,-1.069606,-7.829989,-0.029922,-0.042054,-0.012384,0.022424,1.045313,2.622614,782.06,42.00,highres
12.916625,67074245783,5.386555,-1.126680,-7.925795,0.025818,-0.007038,0.054717,0.022424,1.045313,2.622614,782.06,42.00,highres
12.947308,67074260960,5.526875,-1.640405,-8.090489,0.061678,0.024707,0.049650,0.022424,1.045313,2.622614,782.07,42.00,highres
12.964280,67074277801,5.663297,-1.640317,-8.139479,0.018883,0.034477,-0.007523,0.019408,1.051639,2.618739,782.07,42.00,highres
12.978360,67074310187,5.689506,-1.118360,-7.844085,-0.042168,0.013133,-0.004098,0.019408,1.051639,2.618739,782.07,42.00,highres
13.002161,67074328298,5.668856,-1.181939,-7.814635,-0.019349,0.024450,0.017653,0.019408,1.051639,2.618739,782.07,42.00,highres
13.017392,67074340622,5.600500,-1.265753,-7.736367,-0.010193,0.030242,0.016668,0.025613,1.051609,2.623084,782.07,42.00,highres
13.048544,67074366217,5.544566,-1.421893,-7.710694,-0.007970,0.016867,-0.004237,0.025613,1.051609,2.623084,782.07,42.00,highres
13.066599,67074380898,5.562048,-1.386842,-7.700034,-0.014079,-0.008178,-0.024701,0.025613,1.051609,2.623084,782.07,42.00,highres
13.077247,67074402705,5.440843,-1.189109,-7.795801,-0.049884,-0.044592,-0.018711,0.025613,1.051609,2.623084,782.07,42.00,highres
13.101498,67074415746,5.437992,-1.170405,-7.816751,-0.079489,-0.064034,0.010849,0.016227,1.050508,2.614677,782.07,42.00,highres
13.117776,67074445763,5.497391,-1.378559,-7.945533,0.012369,-0.005864,0.044161,0.016227,1.050508,2.614677,782.07,42.00,highres
13.139540,67074465823,5.602054,-1.406972,-7.979942,0.063463,0.051583,0.011888,0.016227,1.050508,2.614677,782.07,42.00,highres
13.166161,67074483868,5.671966,-1.305837,-7.844861,0.041244,0.045762,-0.002701,0.025936,1.049625,2.612320,782.07,42.00,highres
13.178336,67074508068,5.724928,-1.172313,-7.761703,-0.048486,-0.028995,-0.004832,0.025936,1.049625,2.612320,782.07,42.00,highres
13.200330,67074523202,5.599316,-1.109738,-7.832350,-0.084939,-0.068959,0.013172,0.025936,1.049625,2.612320,782.07,42.00,highres
13.224113,67074545821,5.368324,-1.147343,-7.916810,-0.031823,-0.035731,0.051945,0.025936,1.049625,2.612320,782.07,42.00,highres
13.238528,67074561166,5.413079,-1.542209,-7.983256,0.029890,0.011895,0.055316,0.016172,1.055407,2.622049,782.07,42.00,highres
13.266313,67074575962,5.460419,-1.487011,-7.943970,0.048166,0.033538,0.025404,0.016172,1.055407,2.622049,782.08,42.00,highres
13.277498,67074601339,5.557515,-1.325827,-8.004514,0.024181,0.006775,0.033449,0.016172,1.055407,2.622049,782.08,42.00,highres
13.291197,67074628790,5.776047,-1.618613,-8.116961,-0.052662,-0.009198,0.025631,0.017108,1.051979,2.618231,782.08,42.00,highres
13.291197,67074648992,5.730156,-1.396292,-8.018081,-0.049593,0.011837,-0.006044,0.017108,1.051979,2.618231,782.06,42.00,highres
13.338820,67074661004,5.636132,-1.276790,-8.033616,-0.038061,0.025630,-0.005800,0.017108,1.051979,2.618231,782.06,42.00,highres
13.364607,67074685839,5.473103,-1.250354,-7.894565,-0.016045,0.055004,0.011105,0.017108,1.051979,2.618231,782.06,42.00,highres
13.378409,67074710757,5.544924,-1.617160,-7.646185,0.004210,0.055823,-0.008376,0.016130,1.048040,2.620382,782.06,42.00,highres
13.398207,67074728360,5.615761,-1.436785,-7.621848,-0.050589,-0.007028,-0.054488,0.016130,1.048040,2.620382,782.06,42.00,highres
13.418369,67074752273,5.541156,-0.903389,-7.755454,-0.082939,-0.067015,-0.003179,0.016130,1.048040,2.620382,782.07,42.00,highres
13.448225,67074768786,5.588174,-1.106052,-7.936488,-0.020014,-0.009405,0.037675,0.023493,1.054935,2.624119,782.07,42.00,highres
13.464363,67074786755,5.646019,-1.403234,-7.864283,0.060292,0.070884,0.021163,0.023493,1.054935,2.624119,782.07,42.00,highres
13.478257,67074806700,5.623328,-1.292795,-7.572506,0.043343,0.039469,-0.021647,0.023493,1.054935,2.624119,782.07,42.00,highres
13.499159,67074821709,5.599589,-1.179865,-7.643862,-0.016265,-0.054690,-0.005331,0.023493,1.054935,2.624119,782.08,42.00,highres
13.516092,67074849223,5.537657,-1.337004,-8.030666,-0.065171,-0.098446,0.014032,0.019308,1.047101,2.613801,782.08,42.00,highres
13.547438,67074864777,5.513661,-1.372489,-8.161601,-0.017577,-0.023575,0.006092,0.019308,1.047101,2.613801,782.08,42.00,highres
13.563882,67074888744,5.545346,-1.347676,-7.756116,0.030327,0.042716,-0.002705,0.019308,1.047101,2.613801,782.08,42.00,highres
13.578255,67074906683,5.690146,-1.409462,-7.696698,0.048795,0.006449,-0.017869,0.017077,1.047219,2.615664,782.08,42.00,highres
13.598546,67074923611,5.682859,-1.333105,-7.899694,0.005006,-0.030715,-0.042930,0.017077,1.047219,2.615664,782.08,42.00,highres
13.618827,67074947347,5.603222,-1.102795,-8.081147,-0.005746,-0.022405,-0.021852,0.017077,1.047219,2.615664,782.08,42.00,highres
13.647501,67074968729,5.502973,-1.295273,-8.010584,0.014291,0.014268,-0.004387,0.017077,1.047219,2.615664,782.08,42.00,highres
13.663995,67074985345,5.435635,-1.249518,-7.982425,-0.001556,0.015034,-0.006986,0.016161,1.052254,2.618543,782.08,42.00,highres
13.684034,67075004376,5.458143,-1.394008,-7.819627,-0.037902,-0.025283,0.022335,0.016161,1.052254,2.618543,782.08,42.00,highres
13.698973,67075014491,5.607460,-1.593900,-7.917928,-0.058560,-0.056092,0.007068,0.016161,1.052254,2.618543,782.08,42.00,highres
13.720861,67075049201,5.605615,-1.272717,-8.044631,-0.071359,-0.030240,-0.031006,0.016196,1.044432,2.622093,782.08,42.00,highres
13.739828,67075066572,5.651841,-1.205318,-8.030448,-0.031079,0.028697,-0.030173,0.016196,1.044432,2.622093,782.09,42.00,highres
13.764815,67075088823,5.570900,-1.195536,-7.724665,0.018342,0.084868,-0.035266,0.016196,1.044432,2.622093,782.09,42.00,highres
13.777715,67075108863,5.571612,-1.139274,-7.457905,0.041773,0.054105,-0.046929,0.016196,1.044432,2.622093,782.09,42.00,highres
13.799478,67075120935,5.577433,-1.133926,-7.473391,0.017075,-0.006957,-0.043028,0.012561,1.052351,2.626761,782.09,42.00,highres
13.826760,67075144293,5.481231,-1.180789,-7.869981,-0.024011,-0.077195,-0.040246,0.012561,1.052351,2.626761,782.08,42.00,highres
13.838152,67075164403,5.419243,-1.085427,-7.946563,0.000277,-0.046968,-0.036613,0.012561,1.052351,2.626761,782.08,42.00,highres
13.864495,67075182357,5.277203,-0.947199,-7.835560,-0.052014,-0.066417,0.011525,0.019769,1.044120,2.620649,782.08,42.00,highres
13.877997,67075199578,5.307834,-1.178222,-7.943031,-0.072417,-0.089118,0.055628,0.019769,1.044120,2.620649,782.08,42.00,highres
13.899219,67075219964,5.531175,-1.301578,-8.226501,-0.014125,-0.047246,0.064591,0.019769,1.044120,2.620649,782.08,42.00,highres
13.916778,67075239317,5.663715,-1.483472,-8.302763,0.041763,0.026089,0.054495,0.019769,1.044120,2.620649,782.08,42.00,highres
13.947522,67075259148,5.730502,-1.409605,-8.221844,0.038795,0.059921,0.022777,0.021050,1.045667,2.625397,782.08,42.00,highres
13.965102,67075284678,5.701379,-1.289588,-7.865933,0.036929,0.078259,-0.001794,0.021050,1.045667,2.625397,782.08,42.00,highres
13.977930,67075299103,5.656096,-1.419751,-7.812766,0.067551,0.075688,-0.005517,0.021050,1.045667,2.625397,782.08,42.00,highres
13.998535,67075322712,5.510373,-1.304377,-7.842287,-0.005077,0.034346,-0.040198,0.020650,1.049967,2.625499,782.08,42.00,highres
14.019402,67075344695,5.401481,-0.986060,-7.693267,-0.061597,0.028933,-0.029412,0.020650,1.049967,2.625499,782.08,42.00,highres
14.047000,67075359267,5.395247,-0.826077,-7.627371,-0.072517,0.025139,-0.008697,0.020650,1.049967,2.625499,782.08,42.00,highres
14.065274,67075385019,5.490625,-0.786860,-7.466871,-0.054395,0.010484,0.057439,0.020650,1.049967,2.625499,782.08,42.00,highres
14.077356,67075399822,5.664271,-1.164527,-7.626902,-0.002653,-0.011485,0.074161,0.023953,1.040369,2.614912,782.08,42.00,highres
14.098116,67075416702,5.669850,-1.388890,-7.715269,-0.004518,-0.035235,0.042727,0.023953,1.040369,2.614912,782.08,42.00,highres
14.116054,67075439335,5.598212,-1.341203,-7.929448,-0.058142,-0.102837,0.007428,0.023953,1.040369,2.614912,782.08,42.00,highres
14.137787,67075462211,5.497881,-1.381193,-8.279294,-0.080183,-0.122944,0.011177,0.019890,1.042028,2.618156,782.07,42.00,highres
14.166134,67075486873,5.455984,-1.345282,-8.378650,-0.008175,-0.007927,0.022808,0.019890,1.042028,2.618156,782.07,42.00,highres
14.177977,67075507553,5.540678,-1.469002,-8.049944,-0.001361,0.049638,0.006667,0.019890,1.042028,2.618156,782.07,42.00,highres
14.199819,67075524342,5.688604,-1.481609,-7.838409,-0.004422,0.042818,-0.041223,0.019890,1.042028,2.618156,782.07,42.00,highres
14.217562,67075542036,5.663209,-1.205367,-7.869235,0.000093,0.019681,-0.066701,0.022620,1.046595,2.621964,782.07,42.00,highres
14.247393,67075565273,5.499671,-1.101111,-7.928007,0.045884,0.020735,-0.041615,0.022620,1.046595,2.621964,782.07,42.00,highres
14.264149,67075582529,5.560234,-1.153403,-7.984786,0.065635,0.027191,-0.025797,0.022620,1.046595,2.621964,782.07,42.00,highres
14.277273,67075597222,5.588186,-1.263677,-7.980763,0.046433,0.024687,-0.032768,0.018149,1.042692,2.621149,782.07,42.00,highres
14.297101,67075622395,5.527454,-1.009250,-8.010361,0.040070,0.026644,-0.040172,0.018149,1.042692,2.621149,782.07,42.00,highres
14.297101,67075651448,5.457782,-0.952656,-7.893839,-0.076407,0.024808,0.018963,0.018149,1.042692,2.621149,782.07,42.00,highres
14.347833,67075666905,5.478585,-1.116581,-7.758927,-0.056765,0.026640,0.037297,0.018149,1.042692,2.621149,782.07,42.00,highres
14.362497,67075683784,5.421280,-1.203069,-7.713825,-0.044947,0.019005,0.029958,0.020210,1.041685,2.620611,782.07,42.00,highres
14.386021,67075697471,5.428818,-1.136345,-7.662032,-0.037923,0.007093,0.025987,0.020210,1.041685,2.620611,782.07,42.00,highres
14.397118,67075724105,5.575215,-1.313065,-7.670397,-0.001256,0.002112,0.034198,0.020210,1.041685,2.620611,782.07,42.00,highres
14.420927,67075746954,5.770138,-1.329423,-7.803548,0.003378,-0.022399,-0.014025,0.020068,1.040715,2.617543,782.07,42.00,highres
14.447085,67075764309,5.709393,-1.040014,-7.979017,-0.052985,-0.055154,-0.002885,0.020068,1.040715,2.617543,782.07,42.00,highres
14.462970,67075787191,5.624042,-1.136995,-8.029110,-0.036327,-0.028507,0.010579,0.020068,1.040715,2.617543,782.07,42.00,highres
14.476315,67075806023,5.454617,-1.148295,-8.041693,-0.019291,0.001409,0.010282,0.020068,1.040715,2.617543,782.07,42.00,highres
14.505619,67075826258,5.447241,-1.222740,-8.019396,-0.043392,0.004533,0.015638,0.022135,1.047716,2.626079,782.07,42.00,highres
14.518947,67075845915,5.461816,-1.238298,-7.914232,-0.053523,-0.019593,0.013251,0.022135,1.047716,2.626079,782.07,42.00,highres
14.538657,67075870671,5.515124,-1.169491,-8.050698,0.001808,0.010586,-0.011227,0.022135,1.047716,2.626079,782.07,42.00,highres
14.564910,67075885949,5.498430,-1.077765,-8.008647,-0.005535,0.036986,-0.003958,0.021938,1.041298,2.622283,782.07,42.00,highres
14.578553,67075906436,5.520764,-1.016873,-7.748055,-0.015066,0.034814,0.022209,0.021938,1.041298,2.622283,782.07,42.00,highres
14.598348,67075924613,5.582167,-1.072215,-7.696682,-0.080932,-0.032252,0.039422,0.021938,1.041298,2.622283,782.07,42.00,highres
14.618651,67075947248,5.663603,-1.161099,-7.869030,-0.091350,-0.069396,0.034101,0.021938,1.041298,2.622283,782.07,42.00,highres
14.639501,67075965481,5.612755,-1.222511,-7.901560,-0.016134,-0.038901,0.028289,0.025309,1.043614,2.616987,782.07,42.00,highres
14.664848,67075982999,5.582238,-1.277598,-8.086591,0.092222,0.028810,-0.001798,0.025309,1.043614,2.616987,782.07,42.00,highres
14.677622,67076004735,5.379574,-1.092743,-8.061594,0.088736,0.064380,-0.000452,0.025309,1.043614,2.616987,782.07,42.00,highres
14.701241,67076021000,5.401650,-1.110407,-7.887343,0.007809,0.026348,0.030843,0.024380,1.044152,2.617704,782.08,42.00,highres
14.721919,67076040285,5.613995,-1.418302,-7.960879,-0.025006,-0.018824,0.038546,0.024380,1.044152,2.617704,782.08,42.00,highres
14.742652,67076057449,5.620381,-1.334301,-8.119140,-0.051511,-0.039466,-0.011914,0.024380,1.044152,2.617704,782.08,42.00,highres
14.763830,67076079819,5.453059,-0.813845,-8.186589,-0.060877,-0.013030,-0.018526,0.024380,1.044152,2.617704,782.08,42.00,highres
14.782666,67076090694,5.469210,-1.136601,-8.147554,-0.040225,0.025349,0.021151,0.018940,1.042999,2.621485,782.08,42.00,highres
14.803244,67076112501,5.732746,-1.602909,-8.121751,0.026144,0.091278,0.028798,0.018940,1.042999,2.621485,782.08,42.00,highres
14.818145,67076145152,5.689325,-1.057933,-7.810912,-0.057095,0.059846,-0.064094,0.018940,1.042999,2.621485,782.08,42.00,highres
14.846876,67076167273,5.703527,-0.959955,-7.618030,-0.025965,0.049261,-0.031583,0.009304,1.044782,2.626787,782.08,42.00,highres
14.865490,67076183352,5.678291,-1.164865,-7.505536,0.036297,0.069095,-0.031129,0.009304,1.044782,2.626787,782.08,42.00,highres
14.880343,67076205407,5.343517,-0.931952,-7.536843,0.012673,0.025100,-0.039409,0.009304,1.044782,2.626787,782.08,42.00,highres
14.901157,67076221126,5.248838,-0.899629,-7.485532,-0.034082,-0.029025,0.018058,0.009304,1.044782,2.626787,782.08,42.00,highres
14.916795,67076241325,5.507386,-1.308934,-7.735844,0.011970,-0.055692,-0.001573,0.024022,1.044519,2.618646,782.08,42.00,highres
14.940051,67076265662,5.724617,-1.234911,-8.118788,0.077881,-0.023056,-0.053334,0.024022,1.044519,2.618646,782.07,42.00,highres
14.964360,67076285654,5.735086,-1.258657,-7.868724,0.127490,-0.015301,-0.065445,0.024022,1.044519,2.618646,782.07,42.00,highres
14.978032,67076305328,5.732278,-1.269773,-7.897270,0.164321,-0.026826,-0.085157,0.014469,1.038369,2.608881,782.07,42.00,highres
14.997731,67076328120,5.586279,-0.737822,-8.119610,0.060396,-0.041696,-0.061842,0.014469,1.038369,2.608881,782.07,42.00,highres
15.020889,67076345461,5.225035,-0.562299,-7.866345,-0.142259,-0.080858,0.036645,0.014469,1.038369,2.608881,782.06,42.00,highres
15.046988,67076366643,5.393333,-1.056630,-7.893262,-0.095955,-0.080260,0.098986,0.014469,1.038369,2.608881,782.06,42.00,highres
15.063391,67076383140,5.487108,-1.442468,-8.003633,-0.025951,-0.028436,0.054293,0.022367,1.035856,2.617614,782.06,42.00,highres
15.076092,67076400608,5.495111,-1.136200,-8.012094,-0.038426,-0.041493,0.003362,0.022367,1.035856,2.617614,782.06,42.00,highres
15.103996,67076417700,5.511972,-1.124136,-7.921719,-0.044998,-0.049229,0.029451,0.022367,1.035856,2.617614,782.07,42.00,highres
15.117996,67076436130,5.579423,-1.149579,-8.017054,0.016730,-0.006353,0.034833,0.025383,1.034927,2.615049,782.07,42.00,highres
15.144571,67076467946,5.825647,-1.478106,-7.989155,0.034677,0.062769,0.016170,0.025383,1.034927,2.615049,782.07,42.00,highres
15.163677,67076488491,5.939332,-1.437212,-7.918734,0.011680,0.028078,-0.042686,0.025383,1.034927,2.615049,782.07,42.00,highres
15.184420,67076503528,5.707494,-1.163666,-7.887910,-0.032416,-0.004959,-0.042308,0.025383,1.034927,2.615049,782.07,42.00,highres
15.198984,67076525317,5.513988,-1.124003,-7.879203,-0.088713,-0.024012,0.010979,0.025534,1.037231,2.617900,782.07,42.00,highres
15.225345,67076546259,5.415285,-1.291415,-7.787306,-0.052320,-0.015860,0.004328,0.025534,1.037231,2.617900,782.07,42.00,highres
15.237880,67076567716,5.449220,-1.158244,-7.898703,-0.046497,-0.007417,-0.049473,0.025534,1.037231,2.617900,782.07,42.00,highres
15.265954,67076586497,5.272851,-0.753318,-7.896922,-0.005517,0.022093,-0.013206,0.022887,1.036391,2.614219,782.06,42.00,highres
15.277798,67076606569,5.536902,-0.978291,-7.894290,0.037418,0.061517,0.033461,0.022887,1.036391,2.614219,782.06,42.00,highres
15.305191,67076624700,5.609430,-1.186298,-7.636153,0.029950,0.024276,-0.001856,0.022887,1.036391,2.614219,782.06,42.00,highres
15.305191,67076643170,5.460286,-0.574313,-7.914140,-0.109108,-0.054000,0.004289,0.022887,1.036391,2.614219,782.06,42.00,highres
15.348986,67076665084,5.319914,-0.778364,-7.867918,-0.122936,-0.102252,0.099747,0.018120,1.041937,2.622985,782.06,42.00,highres
15.364796,67076677885,5.520260,-1.270083,-8.269283,0.043689,-0.056126,0.106792,0.018120,1.041937,2.622985,782.06,42.00,highres
15.379314,67076704429,5.527096,-1.267439,-8.237373,0.120210,0.042822,0.050349,0.018120,1.041937,2.622985,782.06,42.00,highres
15.399391,67076718132,5.444539,-1.236524,-7.523011,0.045980,0.026965,0.062108,0.010286,1.035885,2.618832,782.06,42.00,highres
15.427099,67076738455,5.995073,-1.412807,-7.277997,0.147467,-0.048052,0.047294,0.010286,1.035885,2.618832,782.06,42.00,highres
15.447668,67076763423,5.914135,-1.573334,-8.013474,0.378520,-0.136424,-0.051288,0.010286,1.035885,2.618832,782.06,42.00,highres
15.465843,67076788862,5.633666,-1.455267,-8.944568,0.299982,0.006985,-0.025963,0.010286,1.035885,2.618832,782.06,42.00,highres
15.477771,67076806170,5.596153,-1.456244,-8.635306,0.177888,0.120841,-0.002882,0.024318,1.035941,2.619862,782.05,42.00,highres
15.498599,67076828159,5.718596,-1.544006,-8.064417,-0.001111,0.111911,-0.032269,0.024318,1.035941,2.619862,782.05,42.00,highres
15.517941,67076843617,5.605806,-1.594993,-7.621046,-0.101973,0.060623,-0.055145,0.024318,1.035941,2.619862,782.05,42.00,highres
15.546530,67076861293,5.485087,-1.544593,-7.590838,0.041073,0.095401,-0.118079,0.024915,1.026946,2.612703,782.05,42.00,highres
15.564664,67076886570,5.485295,-1.342413,-7.374893,0.324912,0.222279,-0.215837,0.024915,1.026946,2.612703,782.05,42.00,highres
15.582435,67076908231,5.182392,-0.401224,-7.108293,0.149415,0.066830,-0.145486,0.024915,1.026946,2.612703,782.05,42.00,highres
15.599477,67076918544,5.075783,-0.230558,-7.208740,0.004398,-0.068004,-0.011328,0.024915,1.026946,2.612703,782.05,42.00,highres
15.624797,67076936446,5.350894,-1.098933,-7.561550,-0.159102,-0.213794,0.114929,0.031414,1.026729,2.606091,782.05,42.00,highres
15.647689,67076963861,5.374946,-1.359797,-7.956195,-0.109084,-0.234365,0.102412,0.031414,1.026729,2.606091,782.05,42.00,highres
15.664355,67076981862,5.282044,-1.513183,-8.168974,0.041282,-0.146389,0.062715,0.031414,1.026729,2.606091,782.05,42.00,highres
15.678160,67077003557,5.442771,-1.131576,-8.403952,0.130777,-0.071189,0.056110,0.024721,1.032513,2.613481,782.05,42.00,highres
15.699377,67077027124,5.713479,-0.604419,-8.993369,0.117867,-0.066370,0.194528,0.024721,1.032513,2.613481,782.05,42.00,highres
15.718963,67077041140,6.205438,-1.715218,-9.514038,-0.077709,-0.134178,0.318918,0.024721,1.032513,2.613481,782.05,42.00,highres
15.746893,67077067017,6.478596,-2.582332,-9.183102,-0.362508,-0.144296,0.206149,0.024721,1.032513,2.613481,782.05,42.00,highres
15.765866,67077086041,6.566083,-2.890839,-8.363853,-0.140537,0.001697,0.007719,0.026343,1.031752,2.612565,782.05,42.00,highres
15.787000,67077106636,8.409828,-2.179270,-6.718383,0.494560,-0.092666,-0.094082,0.026343,1.031752,2.612565,782.05,42.00,highres
15.798627,67077123938,10.889510,-1.346050,-7.866826,1.122099,-0.484060,0.187030,0.026343,1.031752,2.612565,782.05,42.00,highres
15.826948,67077146158,12.883842,-3.592260,-9.637101,1.256130,-0.688673,0.857741,0.023461,1.027868,2.617780,782.06,41.85,highres
15.847057,67077164289,12.612186,-7.798693,-8.737363,0.919823,-0.438520,0.689083,0.023461,1.027868,2.617780,782.06,41.85,highres
15.866469,67077184387,11.837494,-9.905175,-5.363822,1.065270,-0.019992,-0.170148,0.023461,1.027868,2.617780,782.06,41.85,highres
15.877389,67077203621,13.187501,-8.215783,-4.792260,1.881484,0.197651,-1.486180,0.023461,1.027868,2.617780,782.06,41.85,highres
15.898673,67077222184,15.253834,-6.942685,-6.603425,2.022329,0.430969,-1.975340,0.042042,1.024307,2.600521,782.06,41.70,highres
15.916935,67077245711,16.610044,-6.507368,-3.855496,1.021425,1.878019,-2.273147,0.042042,1.024307,2.600521,782.06,41.70,highres
15.947233,67077265721,11.135984,-5.145915,4.246632,0.483175,1.564872,-2.021950,0.054488,0.956364,2.558650,782.06,41.70,highres
15.964278,67077286303,5.505745,-3.173920,10.144088,0.716572,-1.330973,-1.880686,0.054488,0.956364,2.558650,782.06,41.70,highres
15.979590,67077305969,0.798712,-5.151939,7.244558,0.933501,-4.546008,-2.646581,0.054488,0.956364,2.558650,782.06,41.70,highres
16.002659,67077326378,0.369754,-3.356516,0.674416,1.582684,-5.863103,-3.084412,0.054488,0.956364,2.558650,782.06,41.70,highres
16.019667,67077349064,-0.553263,-3.566043,-9.928445,4.022331,-4.611627,-2.609873,0.054488,0.956364,2.558650,782.06,41.70,highres
16.047214,67077367153,-0.635398,-5.918890,-18.058155,4.691381,-2.539504,-1.724914,0.058214,0.874404,2.581904,782.05,41.70,highres
16.065474,67077381388,-4.304342,-9.830967,-15.513804,1.597817,-0.520563,-1.171413,0.058214,0.874404,2.581904,782.05,41.70,highres
16.087580,67077399108,-9.188279,-10.137680,-6.244336,-2.345562,0.355829,-1.122249,0.044087,0.800145,2.657821,782.05,41.70,highres
16.099645,67077422216,-11.956541,0.032479,-0.725315,-2.640130,-1.776133,-3.428739,0.044087,0.800145,2.657821,782.05,41.70,highres
16.127245,67077441728,-11.905910,6.298782,-4.549244,-1.373629,-2.655666,-2.790123,0.044087,0.800145,2.657821,782.05,41.70,highres
16.138753,67077459931,-12.323078,2.214960,-9.949646,0.608024,-2.751341,-0.605828,0.044087,0.800145,2.657821,782.05,41.70,highres
16.164555,67077477666,-11.582541,-1.150717,-17.988451,0.874195,-2.996170,0.664898,0.044087,0.800145,2.657821,782.05,41.70,highres
16.178789,67077494802,-9.417490,-2.890009,-21.789518,-1.239991,-2.586633,0.891905,0.065800,0.755824,2.696770,782.05,41.70,highres
16.198110,67077516425,-6.067111,0.485188,-15.194916,-3.287927,-0.635296,0.333350,0.065800,0.755824,2.696770,782.05,41.70,highres
16.219369,67077548659,-3.205266,3.919212,-6.142463,-3.200106,2.391898,0.313586,0.074948,0.748266,2.738870,782.05,41.70,highres
16.238882,67077564236,0.016670,5.269565,-1.637965,-1.818149,2.343738,0.923635,0.074948,0.748266,2.738870,782.05,41.70,highres
16.263628,67077584476,7.154507,7.180282,-3.695711,0.480092,1.110852,1.474011,0.074948,0.748266,2.738870,782.05,41.70,highres
16.279391,67077606420,14.075422,7.676090,-9.440375,1.416710,-0.202841,1.709522,0.074948,0.748266,2.738870,782.06,41.70,highres
16.297729,67077629136,7.370122,-5.547523,-13.548147,2.221924,-0.983279,0.834062,0.074948,0.748266,2.738870,782.06,41.70,highres
16.317490,67077646811,3.006057,-9.598455,-17.294977,2.399599,-0.922656,0.195257,0.064407,0.770963,2.705885,782.06,41.70,highres
16.317490,67077669086,1.245988,-11.125364,-22.626017,0.524989,0.042969,-0.536030,0.064407,0.770963,2.705885,782.06,41.70,highres
16.364771,67077686936,0.607333,-6.590927,-18.798311,-1.650422,1.284533,-0.958906,0.058957,0.797212,2.707692,782.06,41.70,highres
16.378336,67077706060,0.270329,-1.287986,-12.006662,-3.043692,2.033130,-0.986237,0.058957,0.797212,2.707692,782.06,41.70,highres
16.397546,67077726322,1.926311,2.521091,-3.327690,-2.856574,2.085375,-0.630404,0.058957,0.797212,2.707692,782.06,41.70,highres
16.418653,67077748784,3.416740,2.612983,0.573349,-0.628508,1.315885,0.008612,0.058957,0.797212,2.707692,782.06,41.70,highres
16.447630,67077764135,4.319437,1.322448,-1.257206,0.728163,0.588499,0.351578,0.058957,0.797212,2.707692,782.06,41.70,highres
16.464617,67077787307,4.943657,-1.141482,-6.907947,1.293553,-0.009403,0.393695,0.058206,0.778069,2.668985,782.06,41.70,highres
16.477300,67077804450,4.455647,-1.670417,-9.229760,0.757030,-0.133324,0.177265,0.058206,0.778069,2.668985,782.06,41.70,highres
16.499679,67077824859,3.354434,-0.950727,-10.049049,-0.032969,0.008531,-0.022291,0.049237,0.780333,2.670505,782.06,41.70,highres
16.517111,67077844397,3.347238,-0.231395,-9.364926,-0.545839,0.230348,-0.016661,0.049237,0.780333,2.670505,782.06,41.70,highres
16.547393,67077869887,4.308943,0.626647,-7.944870,-0.981296,0.174484,0.147621,0.049237,0.780333,2.670505,782.06,41.70,highres
16.564200,67077889639,4.493301,0.909599,-7.769605,-0.972279,0.018285,0.133348,0.049237,0.780333,2.670505,782.06,41.70,highres
16.582068,67077904748,4.375354,1.018328,-7.438404,-0.731589,0.012896,0.066878,0.049237,0.780333,2.670505,782.06,41.70,highres
16.597919,67077929491,4.433188,0.435894,-7.815163,-0.078628,0.039620,-0.033404,0.056729,0.779964,2.663578,782.06,41.70,highres
16.617286,67077945184,3.902291,0.314762,-8.362863,0.231473,0.023178,-0.094789,0.056729,0.779964,2.663578,782.06,41.70,highres
16.646949,67077967037,3.656168,0.478867,-10.052583,0.319379,-0.012857,-0.133983,0.055558,0.777201,2.662086,782.06,41.70,highres
16.662917,67077987102,3.656572,1.016474,-10.589844,0.124762,0.031577,-0.202254,0.055558,0.777201,2.662086,782.06,41.70,highres
16.682737,67078004476,3.442181,1.241192,-10.729202,0.008770,0.191844,-0.178893,0.055558,0.777201,2.662086,782.06,41.70,highres
16.697173,67078024893,3.108216,1.478659,-9.575799,-0.068425,0.375860,-0.147573,0.055558,0.777201,2.662086,782.06,41.70,highres
16.716251,67078039636,3.424351,1.475201,-8.254787,-0.090314,0.369663,-0.040368,0.055558,0.777201,2.662086,782.06,41.70,highres
16.739550,67078059498,3.796587,1.059198,-8.245397,-0.005512,0.269489,0.163034,0.052681,0.774346,2.660097,782.06,41.70,highres
16.764310,67078079730,4.372758,0.244830,-9.410838,-0.061291,0.315863,0.196265,0.052681,0.774346,2.660097,782.06,41.70,highres
16.777771,67078099655,4.484237,0.116417,-8.509666,-0.266768,0.533324,-0.026046,0.055989,0.772561,2.651468,782.07,41.70,highres
16.797937,67078122546,4.045836,1.071603,-6.909390,-0.429197,0.531210,-0.246283,0.055989,0.772561,2.651468,782.07,41.70,highres
16.818010,67078139586,4.140314,1.483006,-6.170707,-0.309797,0.411144,-0.152579,0.055989,0.772561,2.651468,782.07,41.70,highres
16.847440,67078164388,4.860271,1.533950,-6.239208,-0.105521,-0.032758,0.081730,0.055989,0.772561,2.651468,782.06,41.70,highres
16.863412,67078182334,4.695188,1.289367,-7.466100,-0.064442,-0.373509,0.122009,0.055989,0.772561,2.651468,782.06,41.70,highres
16.876816,67078196865,4.298493,0.919414,-8.831069,-0.070755,-0.481615,0.131457,0.060385,0.777133,2.636986,782.06,41.70,highres
16.898628,67078216984,4.461957,-1.016252,-10.393820,0.016721,-0.298960,0.140036,0.060385,0.777133,2.636986,782.06,41.70,highres
16.917466,67078239709,4.878673,-1.158260,-10.054665,0.090742,0.134971,-0.118992,0.058520,0.777606,2.642040,782.05,41.70,highres
16.947828,67078255933,4.838484,-0.026819,-9.389368,-0.042223,0.262976,-0.402668,0.058520,0.777606,2.642040,782.05,41.70,highres
16.963831,67078277652,4.378174,1.389319,-8.618526,-0.262469,0.199223,-0.538207,0.058520,0.777606,2.642040,782.05,41.70,highres
16.978170,67078305528,3.907852,2.202347,-8.580865,-0.276499,0.065333,-0.365054,0.058520,0.777606,2.642040,782.05,41.70,highres
16.996993,67078327788,3.084781,2.870713,-8.503716,-0.035222,0.130482,0.050801,0.058520,0.777606,2.642040,782.06,41.70,highres
17.020785,67078347285,3.423005,1.963235,-8.285745,0.303402,0.233229,0.421335,0.061582,0.770973,2.637177,782.06,41.70,highres
17.038430,67078364795,4.285470,1.106880,-8.283407,0.381209,0.199885,0.516093,0.061582,0.770973,2.637177,782.06,41.70,highres
17.063841,67078385221,4.921935,0.445499,-8.141030,0.262115,0.041636,0.381883,0.064582,0.776866,2.632562,782.06,41.70,highres
17.076968,67078400127,4.975396,0.333053,-8.090436,0.063441,-0.131896,0.231516,0.064582,0.776866,2.632562,782.06,41.70,highres
17.097324,67078419674,4.802122,0.460834,-8.476191,-0.161254,-0.347018,0.119114,0.064582,0.776866,2.632562,782.06,41.70,highres
17.117543,67078440074,4.345633,0.689304,-9.003129,-0.380660,-0.452905,0.087963,0.064582,0.776866,2.632562,782.06,41.70,highres
17.147336,67078459926,4.431346,0.305694,-9.306424,-0.346022,-0.381494,0.087086,0.064582,0.776866,2.632562,782.06,41.70,highres
17.163874,67078487623,4.115922,0.698995,-9.303185,-0.274646,-0.238372,-0.055144,0.062721,0.774707,2.637436,782.06,41.70,highres
17.178777,67078509807,3.655674,1.504361,-9.117255,-0.095118,-0.061790,-0.052899,0.062721,0.774707,2.637436,782.06,41.70,highres
17.197751,67078527498,3.796703,1.588838,-8.915267,0.145304,0.078050,0.042906,0.066162,0.783243,2.640896,782.06,41.70,highres
17.217627,67078547375,4.194425,1.235358,-9.120605,0.223740,0.164102,0.091325,0.066162,0.783243,2.640896,782.06,41.70,highres
17.248467,67078570320,4.247994,0.536043,-8.619620,-0.138455,0.077781,0.079259,0.066162,0.783243,2.640896,782.06,41.70,highres
17.263390,67078587754,4.295371,0.638557,-8.283741,-0.355261,-0.106120,0.024450,0.066162,0.783243,2.640896,782.06,41.70,highres
17.276909,67078602964,4.314515,1.174160,-8.590588,-0.427191,-0.211892,-0.015630,0.066162,0.783243,2.640896,782.06,41.70,highres
17.297280,67078622652,3.853727,1.311923,-8.448075,-0.242204,-0.102743,0.020277,0.060663,0.772738,2.645541,782.06,41.70,highres
17.317395,67078640278,4.232487,1.163993,-8.410487,0.084802,-0.040431,0.074832,0.060663,0.772738,2.645541,782.06,41.70,highres
17.327986,67078657603,4.016982,1.324320,-9.076976,0.115163,-0.092812,0.049655,0.057749,0.783896,2.646403,782.06,41.70,highres
17.327986,67078680167,3.612217,1.679257,-9.627876,-0.005457,-0.031324,0.117770,0.057749,0.783896,2.646403,782.06,41.70,highres
17.378224,67078707535,3.995788,1.157939,-8.867326,0.091287,0.125473,0.292450,0.057749,0.783896,2.646403,782.06,41.70,highres
17.397814,67078727565,4.945643,-0.102704,-7.755590,0.299235,-0.005749,0.243733,0.057749,0.783896,2.646403,782.06,41.70,highres
17.418197,67078740255,5.197928,-0.374374,-8.096663,0.245184,-0.205555,0.056002,0.057749,0.783896,2.646403,782.06,41.70,highres
17.447440,67078763030,4.500216,0.761368,-9.521019,-0.006056,-0.346901,-0.212647,0.060243,0.786547,2.650286,782.06,41.70,highres
17.465824,67078787623,4.136724,0.837797,-9.851634,-0.006805,-0.141012,-0.174720,0.062556,0.786522,2.650034,782.07,41.70,highres
17.477034,67078807386,4.313930,-0.840339,-10.148828,-0.230655,0.255689,-0.242896,0.062556,0.786522,2.650034,782.07,41.70,highres
17.498066,67078827568,6.051450,-1.443068,-8.028175,-0.464404,0.279448,-0.621688,0.062556,0.786522,2.650034,782.07,41.70,highres
17.525261,67078842730,6.446139,-0.720664,-6.600717,-0.165791,0.227827,-0.931266,0.062556,0.786522,2.650034,782.07,41.70,highres
17.548457,67078865509,6.333158,0.547818,-4.890429,0.695954,-0.058917,-1.176107,0.062556,0.786522,2.650034,782.07,41.70,highres
17.563848,67078886071,4.938826,0.434050,-4.932318,1.721546,-0.384368,-1.383457,0.062556,0.786522,2.650034,782.07,41.70,highres
17.578833,67078905830,2.656595,0.185047,-8.134541,2.328095,-0.428263,-1.702314,0.062556,0.786522,2.650034,782.07,41.70,highres
17.598727,67078925644,2.117178,1.783973,-11.458488,2.344459,0.054717,-1.777549,0.060619,0.764199,2.648049,782.07,41.70,highres
17.617440,67078945593,2.309045,2.422379,-11.223056,2.126749,0.796908,-1.328004,0.064825,0.716312,2.658125,782.07,41.70,highres
17.648388,67078965291,3.594751,2.544997,-9.602487,2.064480,1.435209,-0.824825,0.064825,0.716312,2.658125,782.07,41.70,highres
17.664575,67078980649,3.408453,1.663629,-8.005994,2.166055,1.755712,-0.575534,0.064825,0.716312,2.658125,782.07,41.70,highres
17.678243,67079000857,3.558106,0.340653,-5.835201,2.756809,1.333271,-0.307114,0.064825,0.716312,2.658125,782.06,41.70,highres
17.699439,67079025931,3.980624,-0.797854,-7.144817,2.471510,0.218082,0.221250,0.064825,0.716312,2.658125,782.06,41.70,highres
17.718725,67079043270,3.996069,-1.236888,-8.163997,0.384519,-0.881605,0.497449,0.064825,0.716312,2.658125,782.06,41.70,highres
17.746888,67079068187,4.105192,-0.503428,-7.832283,-1.098555,-1.830232,0.861896,0.068469,0.693657,2.649503,782.06,41.70,highres
17.764519,67079083707,3.732552,-0.179136,-6.824592,-1.211794,-2.182999,1.118541,0.075301,0.681655,2.669299,782.06,41.70,highres
17.778163,67079105525,2.797020,-0.318106,-5.187814,-0.684196,-2.362098,1.241524,0.075301,0.681655,2.669299,782.07,41.70,highres
17.799426,67079128020,1.253171,1.357035,-4.362561,-0.445541,-2.642157,1.529732,0.075301,0.681655,2.669299,782.07,41.70,highres
17.817099,67079145841,-0.548679,1.001839,-1.567006,-0.590523,-3.270940,1.909984,0.075301,0.681655,2.669299,782.07,41.70,highres
17.847409,67079160947,-2.469069,-1.052267,-1.322809,-0.101189,-4.437124,1.812412,0.075301,0.681655,2.669299,782.07,50.90,highres
17.863367,67079180897,-3.441231,-1.591943,-9.692677,0.192938,-5.371233,1.772480,0.075301,0.681655,2.669299,782.07,50.90,highres
17.876640,67079201111,-1.827273,-3.270600,-20.737602,1.443228,-4.605582,1.719575,0.067022,0.724808,2.729329,782.07,50.90,highres
17.897451,67079228315,-0.695932,-4.062258,-22.065697,1.959776,-0.807136,1.074273,0.088961,0.766847,2.821605,782.07,50.90,highres
17.917415,67079248826,-0.813515,-5.231157,-17.078772,1.798986,1.454129,0.404531,0.088961,0.766847,2.821605,782.07,50.90,highres
17.946481,67079265273,-0.211655,-7.215670,-13.208061,1.407400,1.589622,-0.058890,0.088961,0.766847,2.821605,782.06,50.90,highres
17.969126,67079287053,0.179468,-7.464851,-11.268861,-0.800692,0.014473,-1.072765,0.088961,0.766847,2.821605,782.06,50.90,highres
17.978836,67079304741,-0.038294,-4.818153,-12.123699,-2.013428,-0.643819,-1.571547,0.088961,0.766847,2.821605,782.06,50.90,highres
18.001054,67079323293,-1.071092,-3.667454,-18.286650,-1.017437,0.159764,-1.848634,0.088961,0.766847,2.821605,782.06,50.90,highres
18.018582,67079345801,-2.945936,-1.936063,-21.481495,0.463613,3.027455,-2.133046,0.082485,0.781759,2.827494,782.06,50.90,highres
18.048120,67079361506,-4.377536,-1.958520,-17.388634,0.926015,4.991702,-1.943460,0.082819,0.742793,2.801052,782.06,50.90,highres
18.066267,67079383504,-3.321101,-1.733443,-9.691803,0.614862,5.736709,-1.255577,0.082819,0.742793,2.801052,782.06,50.90,highres
18.078113,67079398768,-0.151517,-1.913067,-6.822090,0.519870,5.003914,-0.713957,0.082819,0.742793,2.801052,782.06,50.90,highres
18.102106,67079421043,2.503175,-4.560084,-5.903821,0.221192,3.886978,-0.465623,0.082819,0.742793,2.801052,782.06,50.90,highres
18.116142,67079441092,3.606833,-4.438403,-5.391273,-0.543600,3.006013,-0.788064,0.082819,0.742793,2.801052,782.06,50.90,highres
18.146441,67079468540,3.767612,-2.546808,-6.519310,-1.671230,2.051866,-0.997772,0.082819,0.742793,2.801052,782.06,50.90,highres
18.166597,67079486354,3.260801,-0.284903,-6.634707,-2.633376,1.617738,-0.664222,0.066340,0.717591,2.692375,782.05,50.90,highres
18.180392,67079508320,3.521715,1.846171,-4.858164,-3.740295,0.924607,-0.080183,0.067087,0.709125,2.601635,782.05,50.90,highres
18.198966,67079528666,4.461695,1.724869,-2.218709,-3.551551,0.284240,0.396793,0.067087,0.709125,2.601635,782.05,50.90,highres
18.219567,67079546101,5.328346,1.852712,-1.235118,-2.365101,-0.149971,0.693461,0.067087,0.709125,2.601635,782.05,50.90,highres
18.237563,67079561864,5.543621,1.570455,-1.850601,-1.289036,-0.413638,0.779553,0.067087,0.709125,2.601635,782.05,50.90,highres
18.263943,67079586209,5.469883,0.461529,-2.846928,0.034900,-0.542331,0.686743,0.067087,0.709125,2.601635,782.06,50.90,highres
18.279286,67079608697,6.132753,-0.790845,-4.362030,1.164309,-0.577414,0.474364,0.067087,0.709125,2.601635,782.06,50.90,highres
18.299885,67079626342,6.052271,-1.085396,-5.232502,1.288173,-0.689580,0.225948,0.074620,0.732527,2.590514,782.06,50.90,highres
18.321683,67079642006,5.623196,-1.110819,-4.635876,0.738743,-1.074518,0.049531,0.081154,0.740331,2.595537,782.06,50.90,highres
18.321683,67079666156,4.959774,-0.391716,-3.887782,-0.065327,-2.079986,-0.114552,0.081154,0.740331,2.595537,782.06,50.90,highres
18.364286,67079683688,3.697662,-0.254760,-3.358540,-0.270655,-2.873147,-0.142808,0.081154,0.740331,2.595537,782.06,50.90,highres
18.378194,67079708530,1.985175,-0.373684,-3.823347,0.173537,-3.661770,-0.146013,0.081154,0.740331,2.595537,782.06,50.90,highres
18.403618,67079726278,1.026286,-0.514630,-5.046820,0.759122,-4.080523,-0.033183,0.081154,0.740331,2.595537,782.06,50.90,highres
18.418443,67079741614,0.333601,-0.951596,-6.791645,1.126297,-4.196737,0.099365,0.081154,0.740331,2.595537,782.05,50.90,highres
18.440232,67079758780,-0.644220,-2.057373,-8.387674,1.650697,-4.138633,0.130405,0.068765,0.742699,2.668119,782.05,50.90,highres
18.464103,67079778866,-1.210001,-2.637782,-10.416653,1.840621,-3.997614,-0.002272,0.063704,0.737365,2.762781,782.05,50.90,highres
18.477557,67079803673,-1.694505,-3.151746,-12.678388,2.182131,-3.391973,-0.155114,0.063704,0.737365,2.762781,782.05,50.90,highres
18.499185,67079819133,-1.975460,-3.728601,-13.164433,2.442585,-2.755725,-0.184066,0.063704,0.737365,2.762781,782.05,50.90,highres
18.516754,67079842411,-1.797598,-4.270999,-14.440048,2.391436,-2.017405,-0.247261,0.063704,0.737365,2.762781,782.05,50.90,highres
18.547589,67079858922,-1.297804,-4.388397,-16.298449,2.042542,-1.491963,-0.439343,0.063704,0.737365,2.762781,782.05,50.90,highres
18.564608,67079878934,-1.921658,-4.162824,-16.631802,1.253221,-0.703734,-0.619661,0.063704,0.737365,2.762781,782.05,50.90,highres
18.578487,67079906541,-2.824668,-4.474975,-15.240803,0.338938,0.280524,-0.616953,0.089089,0.750347,2.836412,782.05,50.90,highres
18.598180,67079929274,-3.325951,-4.006269,-14.659674,-0.397615,0.674532,-0.451703,0.117628,0.748753,2.870041,782.05,50.90,highres
18.630525,67079946420,-3.091245,-3.836770,-15.348281,-0.600822,1.190280,-0.298220,0.117628,0.748753,2.870041,782.05,50.90,highres
18.647541,67079966309,-2.896291,-3.519924,-13.534898,-0.571778,1.974962,-0.125834,0.117628,0.748753,2.870041,782.06,50.90,highres
18.667266,67079987441,-2.123886,-3.802360,-12.202508,-0.276771,2.420857,-0.039738,0.117628,0.748753,2.870041,782.06,50.90,highres
18.677596,67080004094,-1.379036,-4.443422,-12.875751,-0.345965,2.691629,-0.124997,0.117628,0.748753,2.870041,782.06,50.90,highres
18.707137,67080025457,-0.833839,-4.455052,-12.589949,-0.731543,3.085815,-0.278238,0.117628,0.748753,2.870041,782.06,50.90,highres
