t_wall_s,t_boot_us,ax,ay,az,gx,gy,gz,mx,my,mz,abs_pressure,temperature,source
1.252994,16948045078,0.638686,0.260968,-9.741676,0.000346,-0.000094,-0.001783,0.281406,1.166898,2.724453,780.12,41.70,highres
1.252994,16948055798,0.638251,0.258008,-9.739532,0.000796,-0.000849,0.000033,0.277909,1.164399,2.729924,780.12,41.70,highres
1.252994,16948059646,0.627038,0.271419,-9.754978,0.000088,0.000272,-0.000373,0.277909,1.164399,2.729924,780.12,41.70,highres
1.252994,16948072827,0.626715,0.262165,-9.735691,0.000185,0.000067,-0.000578,0.277909,1.164399,2.729924,780.12,41.70,highres
1.252994,16948084728,0.632700,0.274136,-9.754843,0.002017,0.001131,0.000348,0.277909,1.164399,2.729924,780.12,41.70,highres
1.252994,16948090325,0.631415,0.267218,-9.755775,0.001712,0.000067,0.000033,0.276312,1.157741,2.731788,780.12,41.70,highres
1.252994,16948101381,0.639252,0.261252,-9.747662,0.000796,0.000373,-0.000883,0.276312,1.157741,2.731788,780.12,41.70,highres
1.252994,16948112114,0.639552,0.260263,-9.741533,0.001027,-0.000848,-0.000589,0.276312,1.157741,2.731788,780.12,41.70,highres
1.252994,16948125730,0.636493,0.266930,-9.744426,0.000726,-0.000030,-0.001230,0.276312,1.157741,2.731788,780.12,41.70,highres
1.252994,16948129596,0.632901,0.258550,-9.732456,0.000794,0.001595,0.000633,0.276312,1.157741,2.731788,780.12,41.70,highres
1.252994,16948142760,0.631105,0.281294,-9.748815,0.001710,-0.000031,-0.001810,0.276312,1.157741,2.731788,780.12,41.70,highres
1.252994,16948153070,0.630841,0.264565,-9.743244,0.000207,0.000209,-0.000283,0.276312,1.157741,2.731788,780.12,41.70,highres
1.252994,16948165194,0.635296,0.269324,-9.733652,0.001000,0.000935,-0.000283,0.276312,1.157741,2.731788,780.12,41.70,highres
1.252994,16948180654,0.626478,0.258201,-9.752865,-0.000324,-0.000647,-0.001706,0.276312,1.157741,2.731788,780.12,41.70,highres
1.252994,16948187150,0.635501,0.271341,-9.727839,0.000388,0.000369,-0.000785,0.276312,1.157741,2.731788,780.12,41.70,highres
1.253480,16948197850,0.643274,0.265601,-9.762251,0.001405,-0.000271,0.000192,0.285000,1.161446,2.730305,780.12,41.70,highres
1.253480,16948202802,0.647742,0.273345,-9.749505,0.000269,-0.000946,-0.000589,0.285000,1.161446,2.730305,780.12,41.70,highres
1.253480,16948212322,0.644872,0.275309,-9.716894,0.000794,-0.000543,-0.001810,0.285000,1.161446,2.730305,780.13,41.70,highres
1.253480,16948227113,0.641700,0.276985,-9.728504,0.000904,-0.000152,-0.000589,0.285000,1.161446,2.730305,780.13,41.70,highres
1.253480,16948237140,0.636493,0.272915,-9.748016,0.001099,-0.000848,-0.000894,0.284657,1.162228,2.730077,780.13,41.70,highres
1.253480,16948250585,0.633784,0.268284,-9.750569,0.000097,0.001595,0.000155,0.284657,1.162228,2.730077,780.13,41.70,highres
1.253480,16948254937,0.639414,0.275211,-9.735188,-0.000770,-0.000482,0.000328,0.284657,1.162228,2.730077,780.13,41.70,highres
1.253480,16948265512,0.628899,0.268165,-9.756512,0.003237,0.000679,-0.000589,0.284657,1.162228,2.730077,780.13,41.70,highres
1.253480,16948279922,0.640084,0.269324,-9.691755,-0.000428,0.001290,0.000328,0.284657,1.162228,2.730077,780.13,41.70,highres
1.253480,16948284882,0.637116,0.272915,-9.754533,0.005156,-0.002254,-0.000393,0.284657,1.162228,2.730077,780.13,41.70,highres
1.253480,16948297046,0.624522,0.286083,-9.752806,-0.001316,0.002154,-0.000283,0.284657,1.162228,2.730077,780.13,41.70,highres
1.253480,16948307859,0.642660,0.258533,-9.717228,-0.001347,0.000986,-0.001509,0.284657,1.162228,2.730077,780.13,41.70,highres
1.253480,16948317795,0.633873,0.267238,-9.758470,0.003775,-0.001997,0.000136,0.284657,1.162228,2.730077,780.13,41.70,highres
1.253480,16948327601,0.631415,0.276933,-9.735228,0.001211,0.000830,0.000439,0.276800,1.167266,2.725127,780.13,41.70,highres
1.253734,16948339593,0.645983,0.273582,-9.727019,0.001819,0.000319,-0.000106,0.276800,1.167266,2.725127,780.13,41.70,highres
1.253734,16948343802,0.627590,0.274160,-9.747123,0.002623,-0.001152,-0.000592,0.276800,1.167266,2.725127,780.13,41.70,highres
1.253734,16948355145,0.644129,0.256165,-9.739842,0.001401,0.001292,-0.000592,0.276800,1.167266,2.725127,780.13,41.70,highres
1.253734,16948365969,0.634059,0.282827,-9.727198,0.001490,0.000070,-0.001814,0.270848,1.177407,2.729919,780.13,41.70,highres
1.253734,16948374962,0.628540,0.272897,-9.743779,0.001215,0.001150,0.000160,0.270848,1.177407,2.729919,780.12,41.70,highres
1.253734,16948384867,0.621358,0.257336,-9.755750,0.001096,0.000070,-0.001203,0.270848,1.177407,2.729919,780.12,41.70,highres
1.253734,16948390848,0.654220,0.263863,-9.745492,-0.000126,0.000681,-0.001203,0.270848,1.177407,2.729919,780.12,41.70,highres
1.253734,16948407833,0.628357,0.278925,-9.726400,-0.000767,-0.000002,-0.000256,0.270848,1.177407,2.729919,780.12,41.70,highres
1.253734,16948418481,0.630389,0.285633,-9.758355,0.000972,-0.002130,-0.000530,0.270848,1.177407,2.729919,780.12,41.70,highres
1.253734,16948432734,0.637786,0.272515,-9.735254,0.001401,0.000681,-0.001509,0.270848,1.177407,2.729919,780.12,41.70,highres
1.253734,16948445009,0.627622,0.259566,-9.744698,0.001096,0.000070,0.000018,0.270848,1.177407,2.729919,780.12,41.70,highres
1.253734,16948455490,0.631811,0.253267,-9.730692,0.000404,0.001353,-0.000877,0.270848,1.177407,2.729919,780.12,41.70,highres
1.253734,16948459710,0.654983,0.266933,-9.739260,0.001085,0.001684,-0.000691,0.270848,1.177407,2.729919,780.13,41.70,highres
1.253734,16948475094,0.624746,0.248956,-9.731145,0.002703,-0.000076,-0.000353,0.273003,1.172346,2.736360,780.13,41.70,highres
1.253734,16948480311,0.643222,0.261790,-9.761839,0.001320,0.000348,0.000629,0.273003,1.172346,2.736360,780.13,41.70,highres
1.253899,16948490223,0.620880,0.271938,-9.724051,0.000499,0.000493,-0.001349,0.273003,1.172346,2.736360,780.13,41.70,highres
1.253899,16948503177,0.630670,0.266244,-9.756014,0.002114,-0.000711,0.000358,0.273003,1.172346,2.736360,780.13,41.70,highres
1.253899,16948510150,0.620752,0.270806,-9.752160,0.001246,0.000143,-0.000055,0.283534,1.157069,2.722107,780.13,41.70,highres
1.253899,16948523682,0.645960,0.266581,-9.736307,-0.001347,-0.000235,-0.001203,0.283534,1.157069,2.722107,780.13,41.70,highres
1.253899,16948530709,0.629737,0.277685,-9.733005,0.000395,0.000681,-0.000943,0.283534,1.157069,2.722107,780.13,41.70,highres
1.253899,16948540672,0.633328,0.254941,-9.749764,0.000485,0.000681,-0.000592,0.283534,1.157069,2.722107,780.12,41.70,highres
1.253899,16948553075,0.639907,0.269009,-9.739880,-0.000891,0.000530,0.000018,0.283534,1.157069,2.722107,780.12,41.70,highres
1.253899,16948563774,0.633688,0.274941,-9.739157,0.001140,0.000724,0.000935,0.283534,1.157069,2.722107,780.12,41.70,highres
1.253899,16948576264,0.628911,0.285323,-9.760536,0.000896,-0.000246,-0.000087,0.283534,1.157069,2.722107,780.12,41.70,highres
1.253899,16948580264,0.627343,0.283671,-9.753356,0.000791,-0.000541,0.000018,0.283534,1.157069,2.722107,780.12,41.70,highres
1.253899,16948594091,0.650087,0.288459,-9.750961,-0.000126,0.000375,-0.000898,0.283534,1.157069,2.722107,780.12,41.70,highres
1.253899,16948605436,0.634318,0.250569,-9.723375,0.000485,-0.000780,-0.000964,0.283534,1.157069,2.722107,780.12,41.70,highres
1.253899,16948613142,0.633954,0.277630,-9.748735,0.000884,-0.000341,0.000324,0.275768,1.164932,2.728570,780.12,41.70,highres
1.253899,16948623051,0.619500,0.277974,-9.742787,0.000311,0.000636,-0.000724,0.275768,1.164932,2.728570,780.12,41.70,highres
1.253899,16948633369,0.639619,0.262258,-9.722647,0.001570,0.001903,0.000324,0.275768,1.164932,2.728570,780.12,41.70,highres
1.254024,16948637232,0.646003,0.265578,-9.742444,0.001401,0.001292,0.000935,0.275768,1.164932,2.728570,780.12,41.70,highres
1.254024,16948649894,0.635315,0.262379,-9.747906,0.001401,0.001597,0.000935,0.280708,1.160821,2.728732,780.12,41.70,highres
1.254024,16948660466,0.635157,0.273406,-9.741442,-0.000010,0.000012,-0.000350,0.280708,1.160821,2.728732,780.12,41.70,highres
1.254024,16948670501,0.632131,0.247759,-9.737793,0.000531,0.001009,-0.000310,0.280708,1.160821,2.728732,780.12,41.70,highres
1.254024,16948674830,0.621979,0.293733,-9.774415,0.003845,0.000681,-0.001203,0.280708,1.160821,2.728732,780.12,41.70,highres
1.254024,16948689908,0.651284,0.274094,-9.727019,0.001096,0.002208,-0.000287,0.280708,1.160821,2.728732,780.12,41.70,highres
1.254024,16948701009,0.650087,0.250344,-9.740243,0.001583,0.001465,-0.000287,0.280708,1.160821,2.728732,780.12,41.70,highres
1.254024,16948710935,0.616869,0.254929,-9.711785,-0.000612,-0.001754,0.000008,0.280708,1.160821,2.728732,780.12,41.70,highres
1.254024,16948715804,0.631126,0.266122,-9.775343,0.005526,-0.001094,-0.000603,0.280708,1.160821,2.728732,780.12,41.70,highres
1.254024,16948725049,0.627430,0.274349,-9.689570,-0.003499,0.001911,-0.000909,0.280708,1.160821,2.728732,780.12,41.70,highres
1.254024,16948735462,0.671861,0.253711,-9.765700,0.004137,0.000689,-0.000603,0.280708,1.160821,2.728732,780.12,41.70,highres
1.254024,16948741923,0.635748,0.277938,-9.772723,0.007873,-0.003281,0.000385,0.280285,1.171094,2.728799,780.12,41.70,highres
1.254024,16948754521,0.640282,0.283637,-9.718442,-0.004642,0.003419,-0.000072,0.280285,1.171094,2.728799,780.12,41.70,highres
1.254024,16948770853,0.637678,0.269711,-9.741067,0.002939,-0.000357,0.000133,0.280285,1.171094,2.728799,780.12,41.70,highres
1.254024,16948776287,0.633753,0.262241,-9.765202,0.002304,0.000384,-0.000909,0.280285,1.171094,2.728799,780.12,41.70,highres
1.254148,16948793544,0.640793,0.267961,-9.713486,0.001475,-0.001609,-0.000298,0.274672,1.163271,2.728702,780.12,41.70,highres
1.254148,16948800608,0.640156,0.269779,-9.731421,0.002702,-0.000930,-0.000631,0.274672,1.163271,2.728702,780.12,41.70,highres
1.254148,16948812827,0.627830,0.265018,-9.754941,-0.000478,0.000520,0.001126,0.274672,1.163271,2.728702,780.12,41.70,highres
1.254148,16948824533,0.644390,0.268766,-9.729283,0.001693,-0.000259,-0.001054,0.274672,1.163271,2.728702,780.12,41.70,highres
1.254148,16948830403,0.638551,0.262637,-9.739261,0.001388,-0.001866,0.000313,0.274672,1.163271,2.728702,780.12,41.70,highres
1.254148,16948834696,0.636094,0.268371,-9.737272,0.000777,-0.002060,0.000008,0.274672,1.163271,2.728702,780.12,41.70,highres
1.254148,16948850931,0.642513,0.272535,-9.731193,-0.000514,0.000783,0.000737,0.274672,1.163271,2.728702,780.12,41.70,highres
1.254148,16948856282,0.625677,0.262863,-9.739562,0.001261,-0.000458,0.000134,0.274672,1.163271,2.728702,780.13,41.70,highres
1.254148,16948865488,0.626373,0.274061,-9.738168,0.001388,-0.000422,-0.000243,0.274672,1.163271,2.728702,780.13,41.70,highres
1.254148,16948870550,0.635023,0.274139,-9.739943,0.001082,0.002216,0.000618,0.274672,1.163271,2.728702,780.13,41.70,highres
1.254148,16948892749,0.634499,0.259831,-9.750460,0.000273,-0.000128,0.000223,0.277781,1.164696,2.731233,780.13,41.70,highres
1.254148,16948903420,0.639000,0.272192,-9.726862,0.000980,0.001572,-0.000909,0.277781,1.164696,2.731233,780.13,41.70,highres
1.254148,16948910885,0.630399,0.269961,-9.733407,0.000959,-0.000227,0.000683,0.277781,1.164696,2.731233,780.13,41.70,highres
1.254148,16948921721,0.635548,0.261692,-9.761711,0.000472,0.001097,-0.000196,0.277781,1.164696,2.731233,780.13,41.70,highres
1.254148,16948933007,0.642310,0.280080,-9.713457,0.000580,0.000593,0.000313,0.273081,1.167842,2.739524,780.13,41.70,highres
1.254273,16948943481,0.620330,0.262717,-9.743567,0.001097,0.000331,0.000432,0.273081,1.167842,2.739524,780.13,41.70,highres
1.254273,16948955527,0.631073,0.258313,-9.745776,0.001130,-0.000523,-0.000186,0.273081,1.167842,2.739524,780.13,41.70,highres
1.254273,16948963320,0.627969,0.267038,-9.743967,0.000648,0.000364,0.000442,0.273081,1.167842,2.739524,780.13,41.70,highres
1.254273,16948975473,0.628046,0.261730,-9.765549,0.001101,-0.001037,-0.000225,0.273081,1.167842,2.739524,780.13,41.70,highres
1.254273,16948980599,0.640737,0.275258,-9.745351,-0.001056,0.000384,0.000313,0.273081,1.167842,2.739524,780.13,41.70,highres
1.254273,16948995155,0.624279,0.272257,-9.744133,0.001236,0.000232,0.001229,0.273081,1.167842,2.739524,780.13,41.70,highres
1.254273,16949000890,0.622263,0.269177,-9.765735,0.000323,0.000689,0.000618,0.273081,1.167842,2.739524,780.13,41.70,highres
1.254273,16949010454,0.643131,0.278305,-9.731990,-0.000285,0.000397,0.000035,0.273081,1.167842,2.739524,780.13,41.70,highres
1.254273,16949021988,0.623613,0.266513,-9.740786,0.001610,0.000689,0.000313,0.273081,1.167842,2.739524,780.12,41.70,highres
1.254273,16949035770,0.631161,0.265681,-9.745351,0.000631,0.002522,0.000459,0.274461,1.160685,2.730395,780.12,41.70,highres
1.254273,16949041981,0.646856,0.254199,-9.735018,0.000366,0.000689,0.000113,0.274461,1.160685,2.730395,780.12,41.70,highres
1.254273,16949051841,0.640737,0.278849,-9.742957,0.002304,0.001300,0.000313,0.274461,1.160685,2.730395,780.12,41.70,highres
1.254273,16949062538,0.635289,0.264465,-9.742957,0.000773,-0.000447,0.000052,0.274461,1.160685,2.730395,780.12,41.70,highres
1.254273,16949074563,0.645645,0.245693,-9.741696,0.002136,-0.000197,0.000679,0.277219,1.167411,2.728407,780.12,41.70,highres
1.254395,16949081524,0.619216,0.270495,-9.749257,-0.001504,0.000215,0.000774,0.277219,1.167411,2.728407,780.12,41.70,highres
1.254395,16949085450,0.652981,0.275513,-9.734200,0.001388,0.001606,-0.000298,0.277219,1.167411,2.728407,780.12,41.70,highres
1.254395,16949098436,0.619755,0.273496,-9.749777,-0.000836,0.000384,0.001592,0.277219,1.167411,2.728407,780.12,41.70,highres
1.254395,16949106189,0.639455,0.259781,-9.753816,0.002400,0.000384,-0.001118,0.277219,1.167411,2.728407,780.12,41.70,highres
1.254395,16949120862,0.655102,0.282440,-9.732183,0.001560,-0.000386,-0.000311,0.277219,1.167411,2.728407,780.12,41.70,highres
1.254395,16949128763,0.622783,0.276266,-9.762550,0.002609,0.000637,-0.000373,0.277219,1.167411,2.728407,780.12,41.70,highres
1.254395,16949134003,0.626881,0.267313,-9.742158,0.001515,0.000791,0.000135,0.277219,1.167411,2.728407,780.12,41.70,highres
1.254395,16949147725,0.627974,0.256711,-9.737469,0.001157,0.000190,0.000581,0.277219,1.167411,2.728407,780.12,41.70,highres
1.254395,16949156133,0.630601,0.275101,-9.746313,0.002609,0.000078,0.000659,0.277219,1.167411,2.728407,780.12,41.70,highres
1.254395,16949161144,0.635894,0.278014,-9.736609,0.001998,0.000384,-0.000194,0.281412,1.166887,2.725409,780.12,41.70,highres
1.254395,16949172825,0.639098,0.270028,-9.737035,0.000553,0.000852,-0.000379,0.281412,1.166887,2.725409,780.12,41.70,highres
1.254395,16949177954,0.645957,0.275709,-9.743760,0.001693,0.001196,0.000313,0.281412,1.166887,2.725409,780.12,41.70,highres
1.254395,16949200439,0.640737,0.260893,-9.742958,0.001711,0.000520,0.000135,0.281412,1.166887,2.725409,780.12,41.70,highres
1.254395,16949212869,0.620171,0.264986,-9.732182,0.001706,0.001300,0.001075,0.285498,1.157134,2.726146,780.12,41.70,highres
1.254395,16949221816,0.639399,0.262337,-9.751055,0.002641,-0.000597,-0.000893,0.285498,1.157134,2.726146,780.12,41.70,highres
1.254496,16949235378,0.626373,0.262090,-9.746547,0.000777,-0.000838,0.000008,0.285498,1.157134,2.726146,780.12,41.70,highres
1.254496,16949245887,0.631382,0.275730,-9.735270,0.002240,0.000682,0.000739,0.285498,1.157134,2.726146,780.12,41.70,highres
1.254496,16949251211,0.625996,0.254941,-9.748533,0.001629,-0.000154,-0.001415,0.285498,1.157134,2.726146,780.12,41.70,highres
1.254496,16949265763,0.636327,0.257868,-9.730041,0.000327,0.001782,0.000265,0.285498,1.157134,2.726146,780.12,41.70,highres
1.254496,16949271547,0.629824,0.236948,-9.732814,0.002807,0.000474,0.000511,0.285498,1.157134,2.726146,780.12,41.70,highres
1.254496,16949285740,0.636231,0.254585,-9.733663,0.000173,0.001300,0.000848,0.285498,1.157134,2.726146,780.12,41.70,highres
1.254542,16949296864,0.644384,0.283813,-9.727033,0.001892,-0.000183,0.000039,0.285498,1.157134,2.726146,780.12,41.70,highres
1.254542,16949302478,0.626370,0.268877,-9.737360,0.002101,-0.002365,-0.000196,0.285498,1.157134,2.726146,780.12,41.70,highres
1.254542,16949313879,0.635264,0.268145,-9.742819,-0.000750,0.000689,-0.000298,0.281204,1.168101,2.729797,780.12,41.70,highres
1.254542,16949322648,0.633555,0.277652,-9.721412,0.000166,0.001911,0.000008,0.281204,1.168101,2.729797,780.12,41.70,highres
1.296806,16949333868,0.636294,0.257248,-9.748784,0.002421,-0.000515,0.000129,0.281204,1.168101,2.729797,780.12,41.70,highres
1.304959,16949344092,0.630222,0.266275,-9.738271,0.000398,0.001643,-0.000807,0.281204,1.168101,2.729797,780.13,41.70,highres
1.316971,16949354154,0.628430,0.272816,-9.737239,0.002522,-0.001917,-0.000292,0.286549,1.169192,2.724025,780.13,41.70,highres
1.324693,16949364416,0.629550,0.257163,-9.742202,0.001283,0.000587,0.000517,0.286549,1.169192,2.724025,780.13,41.70,highres
1.330848,16949368280,0.630750,0.265902,-9.738540,0.001047,-0.000211,-0.000024,0.286549,1.169192,2.724025,780.13,41.70,highres
1.347136,16949378273,0.621328,0.271658,-9.745214,0.001194,0.000864,-0.000035,0.286549,1.169192,2.724025,780.13,41.70,highres
1.349765,16949384598,0.629168,0.267122,-9.743825,0.001047,-0.000826,-0.000024,0.286549,1.169192,2.724025,780.13,41.70,highres
1.366755,16949396766,0.622998,0.269012,-9.749932,0.001353,0.000094,-0.000635,0.286549,1.169192,2.724025,780.13,41.70,highres
1.374336,16949408642,0.640505,0.256794,-9.728392,0.001145,0.001237,-0.000104,0.286549,1.169192,2.724025,780.13,41.70,highres
1.386766,16949413566,0.638766,0.266618,-9.738174,0.001212,0.001786,-0.000141,0.286549,1.169192,2.724025,780.12,41.70,highres
1.397373,16949426757,0.627892,0.257254,-9.752976,0.001963,-0.000516,-0.000329,0.286549,1.169192,2.724025,780.12,41.70,highres
1.407073,16949435681,0.627967,0.265224,-9.736703,0.001504,0.001324,0.000050,0.286549,1.169192,2.724025,780.12,41.70,highres
1.415977,16949455793,0.628244,0.268015,-9.730621,0.000845,-0.001024,-0.000127,0.277733,1.161363,2.729361,780.12,41.70,highres
1.424927,16949461404,0.644012,0.261454,-9.741572,0.001351,0.000702,-0.000178,0.277733,1.161363,2.729361,780.12,41.70,highres
1.430031,16949472720,0.628736,0.267223,-9.742262,0.000001,0.000850,-0.000184,0.277733,1.161363,2.729361,780.12,41.70,highres
1.445758,16949482940,0.642257,0.265633,-9.755371,0.002574,0.001011,-0.000635,0.277733,1.161363,2.729361,780.12,41.70,highres
1.448285,16949494215,0.625729,0.263818,-9.742609,0.000968,0.000705,-0.000940,0.282317,1.175245,2.731785,780.12,41.70,highres
1.466558,16949505982,0.629926,0.283718,-9.728442,0.000131,-0.000634,-0.000329,0.282317,1.175245,2.731785,780.12,41.70,highres
1.474685,16949511662,0.640603,0.283778,-9.735305,0.002580,-0.000677,-0.001107,0.282317,1.175245,2.731785,780.12,41.70,highres
1.486209,16949522060,0.630286,0.262906,-9.747304,0.000920,0.000908,-0.000686,0.282317,1.175245,2.731785,780.12,41.70,highres
1.496717,16949531811,0.644929,0.278309,-9.741711,0.001963,0.000907,0.000281,0.282317,1.175245,2.731785,780.12,41.70,highres
1.506337,16949538831,0.638113,0.273461,-9.741835,0.001515,0.000400,0.000892,0.282317,1.175245,2.731785,780.12,41.70,highres
1.517223,16949556221,0.627668,0.270159,-9.733430,0.001534,0.001135,0.000678,0.282317,1.175245,2.731785,780.12,41.70,highres
1.525400,16949561303,0.624236,0.267526,-9.744726,0.001835,0.000078,0.000153,0.282317,1.175245,2.731785,780.12,41.70,highres
1.531230,16949571933,0.632807,0.247887,-9.728385,0.002215,0.001065,-0.000244,0.282317,1.175245,2.731785,780.12,41.70,highres
1.546221,16949581860,0.632680,0.276407,-9.735021,0.000436,0.001316,0.000587,0.282317,1.175245,2.731785,780.13,41.70,highres
1.549721,16949591839,0.633877,0.271619,-9.750583,0.000742,0.002232,-0.000635,0.280467,1.163623,2.726888,780.13,41.70,highres
1.567381,16949598495,0.633972,0.279067,-9.733539,-0.000315,-0.000070,-0.000916,0.280467,1.163623,2.726888,780.13,41.70,highres
1.575047,16949605566,0.629089,0.265633,-9.735022,0.001658,-0.000822,-0.000635,0.280467,1.163623,2.726888,780.13,41.70,highres
1.585739,16949621660,0.628663,0.268845,-9.746589,0.001047,0.001011,-0.000635,0.285432,1.161911,2.715575,780.13,41.70,highres
1.596750,16949627233,0.635232,0.262522,-9.745953,0.002257,0.001599,-0.000341,0.285432,1.161911,2.715575,780.13,41.70,highres
1.607215,16949641670,0.620662,0.275689,-9.740624,0.001963,0.000094,0.000281,0.285432,1.161911,2.715575,780.13,41.70,highres
1.615833,16949651409,0.627892,0.259648,-9.738612,0.002123,0.000080,-0.000315,0.285432,1.161911,2.715575,780.13,41.70,highres
1.624850,16949657006,0.625498,0.265633,-9.738614,0.000108,0.001463,-0.000171,0.285432,1.161911,2.715575,780.13,41.70,highres
1.631629,16949663957,0.625430,0.266864,-9.733825,0.000436,0.001622,0.000587,0.285432,1.161911,2.715575,780.13,41.70,highres
1.646099,16949675856,0.642256,0.262042,-9.742205,0.001963,0.000217,-0.000329,0.285432,1.161911,2.715575,780.13,41.70,highres
1.654878,16949685080,0.627892,0.268027,-9.731429,0.002269,0.001316,0.000892,0.285432,1.161911,2.715575,780.13,41.70,highres
1.666850,16949693984,0.639862,0.270421,-9.746991,0.001963,0.001316,0.000281,0.285432,1.161911,2.715575,780.13,41.70,highres
1.674347,16949711513,0.628336,0.265780,-9.729229,0.000854,0.000370,0.000193,0.285432,1.161911,2.715575,780.13,41.70,highres
1.684799,16949721338,0.655424,0.267011,-9.753620,0.001635,0.001915,-0.000635,0.285432,1.161911,2.715575,780.13,41.70,highres
1.697190,16949736013,0.628591,0.268192,-9.746913,0.001171,0.001432,-0.000577,0.277302,1.164271,2.730447,780.13,41.70,highres
1.704848,16949744139,0.640356,0.271505,-9.748569,0.001672,0.001399,-0.000038,0.277302,1.164271,2.730447,780.12,41.70,highres
1.715545,16949754362,0.632129,0.257843,-9.735609,0.001047,-0.000388,0.000104,0.277302,1.164271,2.730447,780.12,41.70,highres
1.726232,16949759372,0.629089,0.258451,-9.733824,0.001658,-0.000211,-0.000024,0.267081,1.180295,2.737609,780.12,41.70,highres
1.733705,16949768821,0.635987,0.277888,-9.734469,0.000575,0.000705,0.000059,0.267081,1.180295,2.737609,780.12,41.70,highres
1.745775,16949781515,0.626927,0.267063,-9.744391,0.001309,0.000182,0.000281,0.267081,1.180295,2.737609,780.12,41.70,highres
1.752688,16949794118,0.635305,0.274554,-9.724151,0.000076,-0.000349,0.001198,0.267081,1.180295,2.737609,780.12,41.70,highres
1.767775,16949805628,0.621615,0.260262,-9.753414,0.002785,-0.000616,-0.000429,0.267081,1.180295,2.737609,780.12,41.70,highres
1.774465,16949813592,0.641059,0.254860,-9.742205,0.000131,-0.000211,-0.000635,0.267081,1.180295,2.737609,780.12,41.70,highres
1.785900,16949822969,0.634257,0.255615,-9.732737,0.001233,0.000535,0.000196,0.267081,1.180295,2.737609,780.13,41.70,highres
1.797199,16949836774,0.639304,0.263648,-9.750501,0.000707,0.000185,0.001090,0.267081,1.180295,2.737609,780.13,41.70,highres
1.807527,16949842907,0.634489,0.263659,-9.726197,0.001946,-0.000516,0.000587,0.267081,1.180295,2.737609,780.13,41.70,highres
1.816311,16949851598,0.651887,0.259077,-9.755555,0.000976,0.001761,-0.000635,0.267081,1.180295,2.737609,780.13,41.70,highres
1.824673,16949865327,0.626775,0.268915,-9.739553,0.002076,0.000499,-0.000130,0.267081,1.180295,2.737609,780.13,41.70,highres
1.830431,16949875184,0.635761,0.278091,-9.735265,-0.000158,0.000866,0.000764,0.276475,1.161888,2.731663,780.13,41.70,highres
1.847121,16949879768,0.631483,0.269224,-9.744596,0.001658,0.001011,0.000281,0.276475,1.161888,2.731663,780.13,41.70,highres
1.848814,16949892562,0.636271,0.276407,-9.745793,0.001793,0.001146,0.000802,0.276475,1.161888,2.731663,780.13,41.70,highres
1.865397,16949899068,0.648498,0.256998,-9.737543,0.001755,0.000400,-0.000746,0.282608,1.164197,2.733705,780.12,41.70,highres
1.875960,16949908881,0.625365,0.265101,-9.742205,0.000936,-0.000822,-0.000413,0.282608,1.164197,2.733705,780.12,41.70,highres
1.886539,16949922255,0.630083,0.268487,-9.737949,0.000540,0.001225,-0.000024,0.282608,1.164197,2.733705,780.12,41.70,highres
1.896889,16949935106,0.625498,0.258451,-9.744598,0.002474,0.000500,-0.001141,0.282608,1.164197,2.733705,780.12,41.70,highres
1.906656,16949939009,0.623606,0.268113,-9.741623,0.001804,0.000723,0.000035,0.282608,1.164197,2.733705,780.12,41.70,highres
1.915554,16949952199,0.635974,0.261990,-9.737832,0.002384,0.000875,-0.000820,0.282608,1.164197,2.733705,780.12,41.70,highres
1.925799,16949962765,0.641799,0.266547,-9.735997,0.001926,0.000904,-0.000543,0.282608,1.164197,2.733705,780.12,41.70,highres
1.934357,16949971782,0.629255,0.269187,-9.742053,0.001332,0.000400,0.000393,0.282608,1.164197,2.733705,780.12,41.70,highres
1.947605,16949976637,0.622206,0.271581,-9.742618,0.001315,-0.000194,-0.000362,0.282608,1.164197,2.733705,780.12,41.70,highres
1.952746,16949986861,0.629166,0.273223,-9.737871,0.000704,0.001639,-0.001584,0.282608,1.164197,2.733705,780.12,41.70,highres
1.965474,16950002784,0.628192,0.269187,-9.730646,0.000580,0.000054,0.000546,0.282608,1.164197,2.733705,780.12,41.70,highres
1.974790,16950006586,0.628662,0.263929,-9.747021,0.001315,0.000112,0.001471,0.283113,1.163505,2.725036,780.12,41.70,highres
1.985060,16950018916,0.633600,0.262537,-9.734739,0.000399,0.001639,0.000960,0.283113,1.163505,2.725036,780.12,41.70,highres
1.990989,16950022904,0.635163,0.253697,-9.735929,0.001010,0.001028,-0.000057,0.283113,1.163505,2.725036,780.12,41.70,highres
2.007933,16950032933,0.633838,0.269453,-9.739026,0.001042,-0.000668,0.000145,0.278673,1.168896,2.722358,780.12,41.70,highres
2.016649,16950043433,0.615024,0.275173,-9.739025,0.000599,0.000513,0.000249,0.278673,1.168896,2.722358,780.12,41.70,highres
2.026297,16950052139,0.647837,0.263273,-9.733887,0.001315,0.000112,-0.000973,0.278673,1.168896,2.722358,780.12,41.70,highres
2.031569,16950064679,0.623499,0.260938,-9.754232,0.000894,0.000269,-0.000635,0.278673,1.168896,2.722358,780.12,41.70,highres
2.047305,16950069348,0.628039,0.264399,-9.759258,0.000704,-0.000805,0.000214,0.278673,1.168896,2.722358,780.12,41.70,highres
2.056882,16950092786,0.635374,0.275173,-9.713888,0.000100,0.000587,-0.000073,0.278673,1.168896,2.722358,780.12,41.70,highres
2.067749,16950103026,0.622206,0.252429,-9.762967,0.001584,0.000759,-0.000782,0.278673,1.168896,2.722358,780.12,41.70,highres
2.075606,16950112815,0.620567,0.261041,-9.727418,-0.002463,0.002143,0.000415,0.278673,1.168896,2.722358,780.12,41.70,highres
2.086911,16950119068,0.638308,0.267216,-9.710603,0.003453,-0.001135,-0.000438,0.278673,1.168896,2.722358,780.12,41.70,highres
2.097128,16950125062,0.637768,0.263202,-9.752193,0.005591,-0.002332,-0.000362,0.278673,1.168896,2.722358,780.12,41.70,highres
2.106068,16950142149,0.632609,0.271261,-9.731388,-0.000267,0.003349,-0.000491,0.278673,1.168896,2.722358,780.12,41.70,highres
2.115276,16950152413,0.641056,0.267307,-9.731436,0.002104,-0.001265,-0.001989,0.278999,1.167140,2.729240,780.12,41.70,highres
2.126422,16950162492,0.627626,0.262027,-9.747427,-0.000353,0.001546,0.000414,0.278999,1.167140,2.729240,780.12,41.70,highres
2.129886,16950166494,0.625798,0.270384,-9.741421,-0.000212,0.001944,0.000554,0.278999,1.167140,2.729240,780.12,41.70,highres
2.146232,16950185399,0.635374,0.251232,-9.736632,0.001315,-0.001946,-0.001774,0.279656,1.167283,2.728500,780.12,41.70,highres
2.150246,16950190442,0.619255,0.261842,-9.749079,0.000816,0.000290,-0.000571,0.279656,1.167283,2.728500,780.12,41.70,highres
2.166699,16950207146,0.633881,0.268737,-9.729605,0.000914,-0.000194,0.000154,0.279656,1.167283,2.728500,780.12,41.70,highres
2.175181,16950214373,0.631474,0.278605,-9.749538,0.000916,0.000842,-0.000481,0.279656,1.167283,2.728500,780.12,41.70,highres
2.185704,16950225056,0.640162,0.266793,-9.745011,0.000399,0.000417,-0.000362,0.279656,1.167283,2.728500,780.13,41.70,highres
2.196969,16950235903,0.644353,0.269189,-9.729446,0.001315,0.000875,0.000249,0.279656,1.167283,2.728500,780.13,41.70,highres
2.206813,16950242694,0.630171,0.267599,-9.735979,0.001348,-0.001316,-0.000973,0.279656,1.167283,2.728500,780.13,41.70,highres
2.218214,16950254287,0.630204,0.270819,-9.738591,0.002127,0.000924,-0.000258,0.279656,1.167283,2.728500,780.13,41.70,highres
2.228633,16950262537,0.636571,0.275292,-9.735436,0.001132,0.000906,-0.000179,0.279656,1.167283,2.728500,780.13,41.70,highres
2.232671,16950272377,0.622082,0.272367,-9.745011,0.001452,-0.000531,-0.000836,0.279656,1.167283,2.728500,780.13,41.70,highres
2.245875,16950287918,0.636571,0.265596,-9.733040,0.001315,0.000523,-0.000667,0.279656,1.167283,2.728500,780.13,41.70,highres
2.249567,16950291907,0.637357,0.267634,-9.727539,0.001119,0.000134,0.000053,0.284861,1.161835,2.727416,780.13,41.70,highres
2.263420,16950302603,0.639733,0.260808,-9.741495,0.002675,0.001166,0.000258,0.284861,1.161835,2.727416,780.13,41.70,highres
2.263420,16950312190,0.633585,0.262307,-9.746090,0.001266,0.001333,-0.000125,0.284861,1.161835,2.727416,780.13,41.70,highres
2.263420,16950322664,0.625778,0.272173,-9.741430,0.000437,0.001763,0.000554,0.288210,1.164065,2.726857,780.13,41.70,highres
2.263420,16950332573,0.634177,0.265037,-9.747888,0.001192,-0.000194,-0.000667,0.288210,1.164065,2.726857,780.13,41.70,highres
2.307470,16950344398,0.637490,0.263754,-9.734977,0.002093,0.001000,0.000636,0.288210,1.164065,2.726857,780.13,41.70,highres
2.316657,16950355288,0.641789,0.272105,-9.734725,0.001292,-0.000217,0.000053,0.288210,1.164065,2.726857,780.13,41.70,highres
2.327064,16950362214,0.629021,0.261817,-9.747962,0.000774,0.000535,0.000037,0.288210,1.164065,2.726857,780.13,41.70,highres
2.331093,16950375669,0.636571,0.269637,-9.739250,0.000253,0.000708,-0.000959,0.288210,1.164065,2.726857,780.13,41.70,highres
2.346644,16950382803,0.627185,0.284330,-9.739275,0.000544,0.000563,-0.000681,0.288210,1.164065,2.726857,780.13,41.70,highres
2.356779,16950392282,0.638180,0.270424,-9.745679,-0.000012,0.000807,-0.000973,0.288210,1.164065,2.726857,780.13,41.70,highres
2.365953,16950404732,0.629643,0.263992,-9.744451,0.001315,0.000253,-0.000370,0.288210,1.164065,2.726857,780.13,41.70,highres
2.376929,16950414691,0.630586,0.254823,-9.742618,0.001009,0.000723,0.000249,0.288210,1.164065,2.726857,780.13,41.70,highres
2.387297,16950425948,0.638343,0.267320,-9.740704,0.000569,0.000552,-0.000532,0.288210,1.164065,2.726857,780.13,41.70,highres
2.396531,16950438259,0.624937,0.278239,-9.750135,0.000615,-0.000715,0.000204,0.280061,1.161424,2.726804,780.13,41.70,highres
2.407469,16950442224,0.631914,0.250970,-9.741128,-0.000328,0.000417,-0.000973,0.280061,1.161424,2.726804,780.13,41.70,highres
2.415431,16950449500,0.639216,0.264736,-9.736603,0.000214,0.001333,-0.000298,0.280061,1.161424,2.726804,780.13,41.70,highres
2.425876,16950462504,0.626045,0.268697,-9.733871,0.001456,0.000285,0.000092,0.273472,1.174784,2.739453,780.13,41.70,highres
2.430380,16950472440,0.643166,0.268059,-9.740065,0.000203,0.001552,-0.000166,0.273472,1.174784,2.739453,780.13,41.70,highres
2.446448,16950482154,0.634177,0.266874,-9.739821,0.001763,-0.001924,0.000962,0.273472,1.174784,2.739453,780.13,41.70,highres
2.448952,16950492447,0.640337,0.265247,-9.743290,-0.000037,-0.000585,-0.000101,0.273472,1.174784,2.739453,780.13,41.70,highres
2.467171,16950502703,0.638965,0.264399,-9.736632,0.001315,-0.000499,-0.000973,0.273472,1.174784,2.739453,780.13,41.70,highres
2.472474,16950514723,0.638456,0.256733,-9.747430,0.001048,0.000340,0.000898,0.273472,1.174784,2.739453,780.13,41.70,highres
2.486161,16950519354,0.631111,0.262716,-9.753167,-0.000084,-0.000451,-0.000459,0.273472,1.174784,2.739453,780.13,41.70,highres
2.496876,16950532315,0.651455,0.285780,-9.710132,0.001228,-0.000151,-0.000012,0.273472,1.174784,2.739453,780.13,41.70,highres
2.507562,16950544584,0.620943,0.262319,-9.755471,-0.000230,0.000868,-0.000667,0.273472,1.174784,2.739453,780.13,41.70,highres
2.516015,16950549559,0.633197,0.261505,-9.745687,-0.001434,0.002555,-0.000667,0.273472,1.174784,2.739453,780.13,41.70,highres
2.527022,16950559932,0.644663,0.279354,-9.718390,0.003685,-0.001721,-0.000171,0.273472,1.174784,2.739453,780.13,41.70,highres
2.530170,16950569774,0.628730,0.262246,-9.769794,-0.000473,0.000678,-0.000362,0.278726,1.165122,2.726747,780.13,41.70,highres
2.547837,16950580492,0.627441,0.274218,-9.719184,-0.002104,0.002550,-0.001155,0.278726,1.165122,2.726747,780.13,41.70,highres
2.551110,16950592326,0.628192,0.271581,-9.740223,0.003272,-0.000380,-0.000667,0.278726,1.165122,2.726747,780.13,41.70,highres
2.565379,16950602165,0.607382,0.252058,-9.749433,-0.000541,0.001098,-0.001255,0.276911,1.155450,2.725881,780.13,41.70,highres
2.576931,16950615838,0.645209,0.260982,-9.726286,0.001686,-0.000696,0.000249,0.276911,1.155450,2.725881,780.13,41.70,highres
2.585978,16950624831,0.632082,0.274873,-9.736333,0.002365,0.000073,-0.000973,0.276911,1.155450,2.725881,780.13,41.70,highres
2.596588,16950630431,0.627098,0.242852,-9.743475,0.001334,-0.000270,-0.000228,0.276911,1.155450,2.725881,780.13,41.70,highres
2.607950,16950642779,0.639387,0.252429,-9.728253,0.001263,0.000544,0.000047,0.276911,1.155450,2.725881,780.13,41.70,highres
2.615975,16950647989,0.632756,0.260993,-9.732330,0.000093,0.000862,0.001026,0.276911,1.155450,2.725881,780.13,41.70,highres
2.625375,16950652949,0.625798,0.263269,-9.747220,0.001010,-0.000911,-0.000468,0.276911,1.155450,2.725881,780.13,41.70,highres
2.633218,16950672542,0.632980,0.258735,-9.738013,0.001538,0.001157,0.000120,0.276911,1.155450,2.725881,780.13,41.70,highres
2.638744,16950680193,0.629825,0.268751,-9.727817,-0.000143,0.000611,-0.000112,0.276911,1.155450,2.725881,780.13,41.70,highres
2.655185,16950693188,0.630586,0.262005,-9.741420,0.001009,-0.001110,0.000554,0.276911,1.155450,2.725881,780.13,41.70,highres
2.665947,16950702361,0.639264,0.274274,-9.733641,-0.000212,0.001028,-0.000057,0.276911,1.155450,2.725881,780.12,41.70,highres
2.677184,16950712566,0.639736,0.263202,-9.737894,0.003453,0.000256,0.000824,0.277319,1.159313,2.732575,780.12,41.70,highres
2.686403,16950724810,0.638965,0.265596,-9.723465,0.000621,0.000751,-0.000667,0.277319,1.159313,2.732575,780.12,41.70,highres
2.697398,16950734401,0.641359,0.270920,-9.742492,0.000742,0.000589,-0.001032,0.277319,1.159313,2.732575,780.12,41.70,highres
2.706120,16950739645,0.622853,0.271614,-9.739037,0.000704,0.000877,-0.000208,0.275462,1.166572,2.723372,780.12,41.70,highres
2.715658,16950749361,0.640395,0.263086,-9.726048,0.000837,-0.000539,-0.000840,0.275462,1.166572,2.723372,780.12,41.70,highres
2.724597,16950764938,0.626124,0.269520,-9.738356,0.000791,0.001028,0.000336,0.275462,1.166572,2.723372,780.12,41.70,highres
2.730053,16950774800,0.657611,0.242773,-9.750544,0.002361,0.000865,-0.000979,0.275462,1.166572,2.723372,780.12,41.70,highres
2.745864,16950782709,0.644606,0.260617,-9.733895,-0.001340,-0.000288,-0.000667,0.275462,1.166572,2.723372,780.13,41.70,highres
2.757419,16950793994,0.636928,0.264462,-9.757990,0.002354,0.000294,-0.000164,0.275462,1.166572,2.723372,780.13,41.70,highres
2.765791,16950799748,0.642888,0.262548,-9.758088,-0.000636,0.000723,0.000319,0.275462,1.166572,2.723372,780.13,41.70,highres
2.773630,16950809818,0.636133,0.280164,-9.736161,0.001926,-0.000805,-0.000667,0.275462,1.166572,2.723372,780.13,41.70,highres
2.786099,16950819903,0.647221,0.265280,-9.757176,0.000525,0.000185,-0.000236,0.275462,1.166572,2.723372,780.13,41.70,highres
2.797009,16950830085,0.649883,0.251781,-9.733964,0.002062,-0.000532,-0.001175,0.275462,1.166572,2.723372,780.13,41.70,highres
2.806144,16950842989,0.626499,0.257181,-9.737791,0.000605,0.001028,0.000563,0.275462,1.166572,2.723372,780.13,41.70,highres
2.816273,16950848318,0.615717,0.261880,-9.732223,0.001974,-0.000114,-0.000282,0.277658,1.163929,2.724282,780.13,41.70,highres
2.825955,16950863080,0.644460,0.267376,-9.745410,-0.002656,0.001333,-0.000199,0.277658,1.163929,2.724282,780.13,41.70,highres
2.831552,16950874623,0.632980,0.263202,-9.743815,0.004169,-0.002113,-0.000868,0.277658,1.163929,2.724282,780.13,41.70,highres
2.847926,16950884791,0.634560,0.260666,-9.762295,-0.001412,0.001406,0.000038,0.275774,1.171309,2.729343,780.13,41.70,highres
2.849372,16950889879,0.643088,0.265676,-9.720086,-0.002805,0.002100,0.000100,0.275774,1.171309,2.729343,780.13,41.70,highres
2.866593,16950900925,0.631699,0.278270,-9.728673,0.002073,-0.000679,-0.000373,0.275774,1.171309,2.729343,780.13,41.70,highres
2.874186,16950909950,0.636009,0.256655,-9.745930,0.000938,-0.000050,-0.001045,0.275774,1.171309,2.729343,780.13,41.70,highres
2.885978,16950918422,0.632697,0.279357,-9.720468,-0.000212,0.002555,-0.000057,0.275774,1.171309,2.729343,780.13,41.70,highres
2.896747,16950929976,0.641367,0.267387,-9.740227,0.002055,0.000112,-0.000507,0.275774,1.171309,2.729343,780.13,41.70,highres
2.908238,16950940781,0.630586,0.262005,-9.733041,0.000399,0.000719,0.000094,0.275774,1.171309,2.729343,780.13,41.70,highres
2.916106,16950945321,0.623239,0.268163,-9.722827,0.000699,0.000103,-0.000557,0.275774,1.171309,2.729343,780.13,41.70,highres
2.926732,16950957572,0.637646,0.256048,-9.748579,0.002140,0.000244,0.000021,0.275774,1.171309,2.729343,780.13,41.70,highres
2.930054,16950965654,0.624313,0.251580,-9.751098,0.000564,-0.000800,0.000458,0.275774,1.171309,2.729343,780.13,41.70,highres
2.947424,16950971216,0.643699,0.273900,-9.739674,-0.000608,0.001584,-0.000367,0.275774,1.171309,2.729343,780.13,41.70,highres
2.952070,16950988757,0.612676,0.272003,-9.742719,0.001167,-0.000678,-0.000030,0.282649,1.165060,2.726337,780.13,41.70,highres
2.965412,16951004011,0.620007,0.266766,-9.719973,-0.002076,0.001857,-0.000609,0.282649,1.165060,2.726337,780.13,41.70,highres
2.975737,16951010528,0.621247,0.260244,-9.715888,0.001230,-0.000742,-0.000566,0.282649,1.165060,2.726337,780.13,41.70,highres
2.985648,16951021932,0.647539,0.253598,-9.763070,0.000404,0.001557,-0.000121,0.273695,1.162175,2.726708,780.13,41.70,highres
2.997502,16951033432,0.626821,0.270688,-9.733620,0.001572,0.000063,-0.000426,0.273695,1.162175,2.726708,780.13,41.70,highres
3.007895,16951044030,0.638554,0.269160,-9.752642,0.000613,-0.000158,0.000185,0.273695,1.162175,2.726708,780.13,41.70,highres
3.016327,16951047847,0.623565,0.267372,-9.732518,0.001224,0.000148,-0.001037,0.273695,1.162175,2.726708,780.13,41.70,highres
3.025388,16951056657,0.635857,0.264372,-9.739167,0.001224,0.000758,-0.000732,0.273695,1.162175,2.726708,780.13,41.70,highres
3.031056,16951065874,0.651130,0.260780,-9.741520,0.000002,0.001980,0.000490,0.273695,1.162175,2.726708,780.13,41.70,highres
3.046611,16951075154,0.628386,0.273948,-9.747506,0.001530,-0.000463,0.000490,0.273695,1.162175,2.726708,780.13,41.70,highres
3.048394,16951090698,0.634372,0.264372,-9.722367,0.000861,0.000396,-0.000121,0.273695,1.162175,2.726708,780.13,41.70,highres
3.065274,16951100962,0.634361,0.263185,-9.742344,0.000103,-0.000564,0.000490,0.273695,1.162175,2.726708,780.12,41.70,highres
3.074256,16951110944,0.630394,0.262807,-9.729568,0.000810,0.000955,0.000387,0.273695,1.162175,2.726708,780.12,41.70,highres
3.085295,16951124408,0.638773,0.263914,-9.742400,0.001422,0.000561,-0.000938,0.273695,1.162175,2.726708,780.12,41.70,highres
3.096667,16951128225,0.633688,0.259411,-9.733315,0.000308,0.001064,-0.000426,0.281339,1.164262,2.726105,780.12,41.70,highres
3.107259,16951137920,0.623582,0.268405,-9.739963,0.001121,0.000994,-0.000901,0.281339,1.164262,2.726105,780.12,41.70,highres
3.116693,16951150414,0.639690,0.249597,-9.751642,0.000919,0.000453,-0.000121,0.281339,1.164262,2.726105,780.12,41.70,highres
3.126115,16951161028,0.627189,0.260780,-9.730747,-0.000914,0.000758,0.001406,0.274273,1.162684,2.731409,780.12,41.70,highres
3.137065,16951165650,0.635569,0.272610,-9.748154,0.001835,0.000453,0.000185,0.274273,1.162684,2.731409,780.12,41.70,highres
3.146219,16951178304,0.630077,0.267469,-9.724762,0.000141,0.001381,0.001089,0.274273,1.162684,2.731409,780.12,41.70,highres
3.152494,16951187747,0.642419,0.265669,-9.738997,0.000308,-0.000158,-0.001037,0.274273,1.162684,2.731409,780.12,41.70,highres
3.167112,16951198293,0.621592,0.268474,-9.726982,-0.001009,0.000659,-0.000732,0.274273,1.162684,2.731409,780.12,41.70,highres
3.174855,16951205930,0.615219,0.270357,-9.722366,-0.001999,-0.000463,-0.000843,0.274273,1.162684,2.731409,780.12,41.70,highres
3.185313,16951220377,0.627189,0.271554,-9.727156,-0.000914,0.001369,-0.000426,0.274273,1.162684,2.731409,780.12,41.70,highres
3.196361,16951225208,0.637284,0.278558,-9.720181,-0.000303,0.001369,-0.000426,0.274273,1.162684,2.731409,780.12,41.70,highres
3.207228,16951235708,0.624795,0.277070,-9.749125,0.001270,-0.000242,-0.000647,0.274273,1.162684,2.731409,780.12,41.70,highres
3.216935,16951245982,0.626823,0.271138,-9.743181,0.000605,0.001210,-0.001493,0.274273,1.162684,2.731409,780.12,41.70,highres
3.224691,16951251345,0.622469,0.285782,-9.744502,0.000102,0.001213,-0.000526,0.274273,1.162684,2.731409,780.12,41.70,highres
3.229899,16951261087,0.631705,0.272310,-9.738097,0.000308,-0.000458,-0.000121,0.282163,1.161084,2.728882,780.12,41.70,highres
3.246300,16951271768,0.625992,0.260780,-9.751098,0.000002,0.000453,-0.001037,0.282163,1.161084,2.728882,780.12,41.70,highres
3.248162,16951278419,0.635386,0.257196,-9.759831,0.000308,0.000565,-0.000649,0.282163,1.161084,2.728882,780.12,41.70,highres
3.263762,16951292764,0.641476,0.256864,-9.730137,-0.001741,0.001762,-0.000687,0.286677,1.163949,2.729252,780.12,41.70,highres
3.263762,16951300691,0.645893,0.266992,-9.764637,0.000014,0.000775,-0.000471,0.286677,1.163949,2.729252,780.12,41.70,highres
3.263762,16951312261,0.631131,0.254651,-9.738506,0.002065,-0.001380,-0.000923,0.286677,1.163949,2.729252,780.12,41.70,highres
3.263762,16951323453,0.640357,0.273948,-9.721169,-0.002999,0.003292,0.000490,0.286677,1.163949,2.729252,780.12,41.70,highres
3.304844,16951332889,0.635737,0.266139,-9.759878,0.001721,-0.001781,-0.000388,0.286677,1.163949,2.729252,780.12,41.70,highres
3.316714,16951346094,0.629848,0.267695,-9.739134,0.001158,0.000426,-0.001236,0.286677,1.163949,2.729252,780.12,41.70,highres
3.324994,16951351549,0.637471,0.267257,-9.705609,-0.000914,0.001980,-0.000367,0.286677,1.163949,2.729252,780.12,41.70,highres
3.333160,16951361373,0.634869,0.274181,-9.759755,0.003057,0.000148,-0.000732,0.286677,1.163949,2.729252,780.12,41.70,highres
3.346163,16951367680,0.627935,0.268280,-9.733006,0.003122,0.000082,0.000250,0.286677,1.163949,2.729252,780.12,41.70,highres
3.351561,16951375918,0.638664,0.266036,-9.740295,0.000066,0.001128,-0.000002,0.286677,1.163949,2.729252,780.12,41.70,highres
3.366022,16951403810,0.626936,0.272747,-9.741396,0.000356,-0.000560,-0.001006,0.286677,1.163949,2.729252,780.12,41.70,highres
3.374327,16951413302,0.634619,0.259583,-9.744627,-0.000060,0.000821,0.000065,0.279667,1.166602,2.728811,780.12,41.70,highres
3.385711,16951418695,0.634981,0.267353,-9.736844,-0.000914,0.000758,-0.000121,0.279667,1.166602,2.728811,780.13,41.70,highres
3.397255,16951430586,0.632436,0.260588,-9.741978,0.000893,0.000393,-0.000367,0.279667,1.166602,2.728811,780.13,41.70,highres
3.407859,16951442403,0.656101,0.254736,-9.745712,0.000919,0.000438,-0.000029,0.286816,1.166054,2.731965,780.13,41.70,highres
3.409260,16951452981,0.628697,0.263769,-9.721176,0.001149,-0.000921,-0.000732,0.286816,1.166054,2.731965,780.13,41.70,highres
3.424900,16951458310,0.655899,0.272790,-9.750769,0.001515,-0.000365,-0.001544,0.286816,1.166054,2.731965,780.13,41.70,highres
3.436265,16951468158,0.619031,0.268278,-9.731330,0.002034,-0.000010,0.000627,0.286816,1.166054,2.731965,780.13,41.70,highres
3.447548,16951478115,0.623598,0.267963,-9.723563,-0.001525,0.001369,-0.000426,0.286816,1.166054,2.731965,780.13,41.70,highres
3.449211,16951483640,0.611757,0.275601,-9.715952,-0.000303,0.001369,-0.000121,0.286816,1.166054,2.731965,780.13,41.70,highres
3.465657,16951503708,0.638509,0.264315,-9.753112,-0.001690,0.001910,-0.000481,0.286816,1.166054,2.731965,780.12,41.70,highres
3.477532,16951515391,0.634336,0.270946,-9.726585,0.000182,-0.000822,-0.000479,0.286816,1.166054,2.731965,780.12,41.70,highres
3.484384,16951521420,0.627254,0.267203,-9.745368,0.001835,-0.000302,-0.000104,0.286816,1.166054,2.731965,780.12,41.70,highres
3.498407,16951536317,0.626191,0.253332,-9.746307,0.000919,0.001276,-0.000214,0.286816,1.166054,2.731965,780.12,41.70,highres
3.507104,16951545832,0.642542,0.263526,-9.733141,-0.000069,0.000148,-0.000920,0.286816,1.166054,2.731965,780.12,41.70,highres
3.516116,16951551358,0.637492,0.254710,-9.732500,0.001551,0.000410,-0.000142,0.279890,1.165602,2.728588,780.12,41.70,highres
3.525637,16951566328,0.633174,0.271697,-9.750239,-0.001354,0.000319,0.000453,0.279890,1.165602,2.728588,780.12,41.70,highres
3.530752,16951575779,0.632608,0.265505,-9.732008,0.002140,-0.000013,0.000040,0.279890,1.165602,2.728588,780.12,41.70,highres
3.547060,16951581448,0.630258,0.272515,-9.739868,0.001663,-0.000635,0.000318,0.277023,1.166639,2.725223,780.12,41.70,highres
3.554696,16951591503,0.628512,0.275723,-9.749240,0.000840,0.001177,0.000411,0.277023,1.166639,2.725223,780.12,41.70,highres
3.565652,16951598377,0.626164,0.261439,-9.751194,0.000178,0.000545,0.000231,0.277023,1.166639,2.725223,780.12,41.70,highres
3.574977,16951611287,0.642691,0.269338,-9.727501,0.001457,-0.000696,0.000796,0.277023,1.166639,2.725223,780.12,41.70,highres
3.586385,16951624877,0.631453,0.257862,-9.749373,0.000069,0.001183,0.000170,0.277023,1.166639,2.725223,780.12,41.70,highres
3.596536,16951635766,0.635621,0.265569,-9.733945,0.001224,0.000453,-0.000631,0.277023,1.166639,2.725223,780.12,41.70,highres
3.607256,16951640987,0.616810,0.268099,-9.736051,0.001224,-0.000322,0.000348,0.277023,1.166639,2.725223,780.12,41.70,highres
3.615259,16951652770,0.622401,0.265569,-9.731944,0.000776,0.000758,-0.000657,0.277023,1.166639,2.725223,780.12,41.70,highres
3.625169,16951662514,0.652327,0.259583,-9.757084,0.002446,0.001064,0.000490,0.277023,1.166639,2.725223,780.12,41.70,highres
3.631009,16951676009,0.624548,0.262934,-9.731461,0.003362,-0.000342,-0.000305,0.277023,1.166639,2.725223,780.12,41.70,highres
3.647464,16951681986,0.661480,0.267265,-9.768902,-0.000551,0.000650,0.000687,0.277023,1.166639,2.725223,780.12,41.70,highres
3.648728,16951695684,0.645617,0.268204,-9.744387,0.002987,0.000488,0.000150,0.281213,1.161446,2.730515,780.12,41.70,highres
3.666277,16951701383,0.653628,0.251881,-9.744175,0.000880,0.000184,-0.000121,0.281213,1.161446,2.730515,780.12,41.70,highres
3.674304,16951716968,0.631328,0.274104,-9.731932,0.001408,0.000209,-0.000546,0.281213,1.161446,2.730515,780.12,41.70,highres
3.685375,16951722652,0.623240,0.268042,-9.747786,0.000287,0.000830,0.000164,0.284552,1.163348,2.724823,780.12,41.70,highres
3.697073,16951733780,0.634899,0.277253,-9.730747,0.001835,0.000758,-0.000732,0.284552,1.163348,2.724823,780.12,41.70,highres
3.708162,16951745879,0.633858,0.259960,-9.737451,0.001023,0.000052,0.000385,0.284552,1.163348,2.724823,780.14,41.70,highres
3.716575,16951751303,0.633768,0.266767,-9.744513,0.001071,0.000453,0.000490,0.284552,1.163348,2.724823,780.14,41.70,highres
3.725356,16951761933,0.625031,0.266785,-9.735604,0.001030,0.001714,-0.001387,0.284552,1.163348,2.724823,780.14,41.70,highres
3.730753,16951771290,0.634122,0.261963,-9.737044,0.000031,-0.000309,-0.000165,0.284552,1.163348,2.724823,780.14,41.70,highres
3.745165,16951778805,0.634497,0.260805,-9.735856,0.000724,-0.000444,-0.000974,0.284552,1.163348,2.724823,780.14,41.70,highres
3.750113,16951788334,0.641212,0.273576,-9.740626,0.001941,0.001822,-0.000204,0.284552,1.163348,2.724823,780.14,41.70,highres
3.767226,16951801829,0.635690,0.265440,-9.742367,0.000773,0.001470,0.000446,0.284552,1.163348,2.724823,780.14,41.70,highres
3.774711,16951813916,0.625664,0.263199,-9.745805,0.000007,-0.000907,-0.001462,0.284552,1.163348,2.724823,780.14,41.70,highres
3.784931,16951825744,0.632067,0.259608,-9.740214,0.000777,-0.000580,-0.000165,0.284552,1.163348,2.724823,780.13,41.70,highres
3.796602,16951831719,0.634160,0.261190,-9.739820,0.000979,0.000383,-0.000296,0.278616,1.162915,2.728713,780.13,41.70,highres
3.806134,16951841927,0.633255,0.264270,-9.753649,0.000056,-0.000736,0.000085,0.278616,1.162915,2.728713,780.13,41.70,highres
3.816660,16951853839,0.638430,0.261193,-9.733834,0.001153,0.000675,-0.000267,0.278616,1.162915,2.728713,780.13,41.70,highres
3.829392,16951864257,0.635240,0.267988,-9.739819,0.000542,0.000472,0.000141,0.281405,1.153632,2.721292,780.13,41.70,highres
3.832737,16951871672,0.630013,0.276566,-9.744687,0.000462,-0.000364,0.000061,0.281405,1.153632,2.721292,780.13,41.70,highres
3.846330,16951882646,0.630452,0.278761,-9.742213,0.000542,0.000167,-0.001081,0.281405,1.153632,2.721292,780.13,41.70,highres
3.849158,16951893255,0.632846,0.265289,-9.740202,0.000685,-0.001341,0.000141,0.281405,1.153632,2.721292,780.13,41.70,highres
3.866550,16951899315,0.633543,0.273381,-9.739017,0.000237,-0.001297,-0.000228,0.281405,1.153632,2.721292,780.12,41.70,highres
3.873753,16951915697,0.640028,0.258411,-9.744608,0.000129,0.000373,-0.000470,0.281405,1.153632,2.721292,780.12,41.70,highres
3.885867,16951921429,0.633960,0.266198,-9.742640,0.000956,0.001083,-0.001081,0.281405,1.153632,2.721292,780.12,41.70,highres
3.897067,16951931321,0.629204,0.271681,-9.734929,0.000848,-0.001360,0.001057,0.281405,1.153632,2.721292,780.12,41.70,highres
3.904899,16951941382,0.614018,0.252673,-9.727354,0.000971,0.000108,-0.000165,0.281405,1.153632,2.721292,780.12,41.70,highres
3.916328,16951951573,0.659181,0.265593,-9.743412,0.001682,-0.000415,-0.000136,0.281405,1.153632,2.721292,780.12,41.70,highres
3.926250,16951956077,0.644197,0.266643,-9.764071,0.002153,-0.000312,0.000009,0.281405,1.153632,2.721292,780.12,41.70,highres
3.930110,16951966471,0.626240,0.255973,-9.734987,0.000574,0.001126,-0.001545,0.274383,1.164519,2.732280,780.12,41.70,highres
3.942837,16951978451,0.633371,0.260736,-9.743807,0.000460,0.000115,0.000260,0.274383,1.164519,2.732280,780.12,41.70,highres
3.951241,16951986294,0.627618,0.260838,-9.733803,-0.000180,-0.000155,-0.000487,0.276750,1.164896,2.736368,780.12,41.70,highres
3.964566,16951999362,0.631649,0.256017,-9.743410,0.000542,0.000167,-0.000470,0.276750,1.164896,2.736368,780.12,41.70,highres
3.973800,16952008803,0.637079,0.272256,-9.746181,0.000359,0.000411,0.000568,0.276750,1.164896,2.736368,780.12,41.70,highres
3.985706,16952018803,0.622202,0.247812,-9.729960,0.000542,0.001083,0.000141,0.276750,1.164896,2.736368,780.12,41.70,highres
3.997495,16952028297,0.640983,0.269412,-9.748661,0.001265,-0.000279,0.000834,0.276750,1.164896,2.736368,780.12,41.70,highres
4.005867,16952041679,0.627740,0.267791,-9.730290,-0.000500,0.000543,0.000571,0.276750,1.164896,2.736368,780.12,41.70,highres
4.016666,16952045863,0.636437,0.272776,-9.757775,0.000380,-0.000138,0.000172,0.276750,1.164896,2.736368,780.12,41.70,highres
4.025778,16952058950,0.623023,0.258411,-9.733624,-0.001291,0.000778,-0.000646,0.276750,1.164896,2.736368,780.12,41.70,highres
4.029934,16952068653,0.640028,0.262002,-9.754184,0.001378,-0.001135,-0.000358,0.276750,1.164896,2.736368,780.12,41.70,highres
4.045735,16952080188,0.626152,0.289265,-9.731171,-0.001176,0.000873,-0.000165,0.276750,1.164896,2.736368,780.12,41.70,highres
4.047695,16952088735,0.626974,0.253835,-9.747115,0.001562,0.000681,0.001366,0.276750,1.164896,2.736368,780.12,41.70,highres
4.066665,16952102423,0.645210,0.276714,-9.714762,-0.001468,-0.001090,-0.000435,0.276750,1.164896,2.736368,780.12,41.70,highres
4.074057,16952106775,0.621551,0.262256,-9.737779,-0.002070,0.000167,0.000072,0.281332,1.162717,2.728959,780.12,41.70,highres
4.084539,16952115329,0.629402,0.271767,-9.768683,0.001016,0.000541,-0.000913,0.286456,1.160813,2.723325,780.12,41.70,highres
4.097117,16952129337,0.637634,0.260805,-9.720667,-0.001745,0.000912,0.001362,0.286456,1.160813,2.723325,780.12,41.70,highres
4.107688,16952139096,0.630007,0.279685,-9.756680,0.001007,-0.000458,-0.000484,0.286456,1.160813,2.723325,780.12,41.70,highres
4.115614,16952149091,0.637872,0.261730,-9.738291,0.000552,0.000037,-0.000100,0.286456,1.160813,2.723325,780.12,41.70,highres
4.125926,16952156306,0.640321,0.270382,-9.750791,0.001718,-0.000303,-0.000352,0.286456,1.160813,2.723325,780.12,41.70,highres
4.137109,16952167200,0.634856,0.273577,-9.741039,-0.000374,0.001083,0.000446,0.286456,1.160813,2.723325,780.12,41.70,highres
4.147332,16952179151,0.644341,0.251015,-9.736014,-0.000706,0.000692,-0.000138,0.286456,1.160813,2.723325,780.12,41.70,highres
4.151612,16952184704,0.641098,0.258666,-9.712116,0.000565,0.000754,0.000336,0.286456,1.160813,2.723325,780.12,41.70,highres
4.165399,16952195119,0.630452,0.265593,-9.747002,0.001458,-0.000749,-0.000470,0.286456,1.160813,2.723325,780.12,41.70,highres
4.177056,16952208778,0.647210,0.258411,-9.741016,-0.000003,0.000047,-0.000187,0.286456,1.160813,2.723325,780.12,41.70,highres
4.184356,16952216383,0.637634,0.264396,-9.745804,0.000007,0.000243,-0.001524,0.286456,1.160813,2.723325,780.12,41.70,highres
4.197299,16952226600,0.633886,0.269280,-9.737741,0.000346,0.001062,-0.000361,0.286456,1.160813,2.723325,780.12,41.70,highres
4.211721,16952234203,0.634585,0.269839,-9.745487,0.000237,0.000868,0.000572,0.286456,1.160813,2.723325,780.12,41.70,highres
4.216717,16952251486,0.628058,0.270382,-9.741016,0.000351,-0.000098,-0.001615,0.280792,1.162483,2.731387,780.12,41.70,highres
4.226148,16952257798,0.629618,0.279595,-9.745699,0.000542,-0.000444,-0.001387,0.287577,1.151098,2.740298,780.12,41.70,highres
4.230512,16952266664,0.640103,0.281230,-9.729532,0.000134,0.000061,-0.000065,0.287577,1.151098,2.740298,780.12,41.70,highres
4.246637,16952276076,0.632846,0.268555,-9.742655,0.000542,0.000068,-0.000875,0.287577,1.151098,2.740298,780.12,41.70,highres
4.248399,16952293442,0.638479,0.263115,-9.745691,0.000765,0.000799,-0.000545,0.287577,1.151098,2.740298,780.12,41.70,highres
4.265102,16952306000,0.645001,0.274119,-9.744918,-0.000239,-0.000345,-0.000506,0.287577,1.151098,2.740298,780.12,41.70,highres
4.265102,16952312340,0.637141,0.264118,-9.747849,0.000563,-0.000586,-0.000755,0.287577,1.151098,2.740298,780.12,41.70,highres
4.265102,16952322371,0.628587,0.285552,-9.739353,0.000542,0.001151,0.000089,0.287577,1.151098,2.740298,780.12,41.70,highres
4.265102,16952333920,0.625146,0.260628,-9.761278,-0.000985,-0.000029,0.000763,0.287577,1.151098,2.740298,780.12,41.70,highres
4.305779,16952344872,0.632548,0.265891,-9.739020,0.000883,0.000643,-0.000505,0.287577,1.151098,2.740298,780.12,41.70,highres
4.315700,16952349346,0.649604,0.269185,-9.739821,0.000237,-0.000138,0.000141,0.287577,1.151098,2.740298,780.12,41.70,highres
4.326223,16952357423,0.636983,0.257865,-9.739923,-0.000680,0.000778,-0.001081,0.287577,1.151098,2.740298,780.12,41.70,highres
4.330973,16952365439,0.641741,0.264913,-9.747332,0.000369,0.000415,-0.000338,0.287577,1.151098,2.740298,780.12,41.70,highres
4.348262,16952376590,0.621391,0.272435,-9.730759,0.000263,0.000638,0.000751,0.287577,1.151098,2.740298,780.12,41.70,highres
4.351303,16952389435,0.626194,0.265365,-9.745230,0.000807,-0.000016,-0.000287,0.277116,1.167227,2.727927,780.12,41.70,highres
4.366229,16952403398,0.632420,0.263296,-9.749746,0.000977,-0.000262,-0.000337,0.273196,1.172909,2.716573,780.12,41.70,highres
4.375284,16952414760,0.637685,0.277131,-9.742977,0.001355,0.001285,0.000746,0.273196,1.172909,2.716573,780.12,41.70,highres
4.386038,16952424756,0.635559,0.255857,-9.727810,0.000461,0.000208,-0.000868,0.273196,1.172909,2.716573,780.12,41.70,highres
4.396010,16952429255,0.634090,0.268082,-9.729728,0.001309,0.000640,0.000458,0.273196,1.172909,2.716573,780.12,41.70,highres
4.406141,16952442121,0.630518,0.262685,-9.760413,-0.000069,0.000608,-0.000448,0.273196,1.172909,2.716573,780.12,41.70,highres
4.416046,16952450783,0.646013,0.260805,-9.729046,0.002375,-0.000749,-0.001081,0.273196,1.172909,2.716573,780.12,41.70,highres
4.424508,16952454993,0.637745,0.259165,-9.746626,0.001458,-0.000138,-0.000165,0.273196,1.172909,2.716573,780.13,41.70,highres
4.433692,16952475168,0.628877,0.260733,-9.738992,0.001134,-0.000559,0.000942,0.273196,1.172909,2.716573,780.13,41.70,highres
4.446878,16952486893,0.633398,0.259425,-9.728587,0.000181,0.000472,-0.000901,0.273196,1.172909,2.716573,780.13,41.70,highres
4.448641,16952493092,0.630950,0.285043,-9.740614,0.000669,0.000905,0.000319,0.273196,1.172909,2.716573,780.13,41.70,highres
4.466955,16952502410,0.641225,0.261490,-9.733280,0.001710,0.001346,0.000805,0.273196,1.172909,2.716573,780.13,41.70,highres
4.473843,16952512894,0.621985,0.269915,-9.731177,0.000904,-0.000138,-0.000289,0.273196,1.172909,2.716573,780.13,41.70,highres
4.484833,16952521878,0.636560,0.267988,-9.748446,0.000920,-0.000022,-0.001342,0.273196,1.172909,2.716573,780.13,41.70,highres
4.496532,16952531866,0.631307,0.267304,-9.741359,-0.000069,-0.000017,-0.000019,0.276933,1.161401,2.731664,780.13,41.70,highres
4.505105,16952536861,0.619730,0.268258,-9.745754,0.001153,-0.000542,-0.000672,0.287554,1.154646,2.710137,780.13,41.70,highres
4.515094,16952552402,0.637634,0.265593,-9.732637,-0.000985,0.000462,0.000762,0.287554,1.154646,2.710137,780.13,41.70,highres
4.525744,16952556630,0.630985,0.257748,-9.732767,0.000237,0.001083,0.000751,0.287554,1.154646,2.710137,780.13,41.70,highres
4.529748,16952562294,0.625663,0.266809,-9.748245,0.001007,0.000429,0.000155,0.287554,1.154646,2.710137,780.13,41.70,highres
4.546609,16952585523,0.642151,0.264367,-9.743268,0.000572,0.000904,-0.000601,0.287554,1.154646,2.710137,780.13,41.70,highres
4.550693,16952589332,0.634222,0.257897,-9.738376,0.000900,-0.000199,0.000105,0.287554,1.154646,2.710137,780.13,41.70,highres
4.566593,16952600167,0.631297,0.266192,-9.747706,0.000177,-0.000739,-0.000972,0.287554,1.154646,2.710137,780.13,41.70,highres
4.574502,16952610101,0.642000,0.271394,-9.742003,0.000268,0.000483,-0.001099,0.287554,1.154646,2.710137,780.13,41.70,highres
4.585497,16952624359,0.642718,0.263251,-9.746786,0.000886,-0.000534,-0.000100,0.287554,1.154646,2.710137,780.13,41.70,highres
4.596089,16952629297,0.635529,0.275136,-9.747099,-0.000133,0.000316,0.000134,0.287554,1.154646,2.710137,780.13,41.70,highres
4.607396,16952643255,0.626953,0.265201,-9.735886,0.000477,-0.000320,0.000647,0.287554,1.154646,2.710137,780.13,41.70,highres
4.616161,16952652118,0.627705,0.269236,-9.735715,0.000172,-0.001350,-0.000812,0.287554,1.154646,2.710137,780.13,41.70,highres
4.625222,16952662725,0.635206,0.268469,-9.741793,0.000474,0.001708,-0.000053,0.287554,1.154646,2.710137,780.13,41.70,highres
4.630934,16952672570,0.626933,0.258734,-9.734364,0.000212,0.000374,-0.000378,0.276211,1.165410,2.731822,780.13,41.70,highres
4.646773,16952683351,0.642070,0.264448,-9.744093,0.000477,0.000177,-0.000506,0.277236,1.158410,2.747198,780.13,41.70,highres
4.648463,16952692386,0.626508,0.265645,-9.735715,-0.000133,0.000788,0.000105,0.277236,1.158410,2.747198,780.13,41.70,highres
4.666808,16952704964,0.642000,0.267196,-9.743814,-0.000397,0.000557,-0.000275,0.277236,1.158410,2.747198,780.12,41.70,highres
4.676293,16952714097,0.634603,0.267274,-9.748549,0.000783,0.000788,0.000105,0.277236,1.158410,2.747198,780.12,41.70,highres
4.684950,16952719526,0.632023,0.267326,-9.752234,0.000059,0.000980,-0.000393,0.277236,1.158410,2.747198,780.12,41.70,highres
4.697366,16952727138,0.631973,0.263583,-9.738795,-0.000314,-0.000726,0.000173,0.277236,1.158410,2.747198,780.12,41.70,highres
4.706355,16952744743,0.608553,0.277616,-9.739305,-0.000256,0.000209,0.000137,0.277236,1.158410,2.747198,780.12,41.70,highres
4.714934,16952755191,0.630704,0.268064,-9.736912,0.000326,0.000785,-0.000509,0.277236,1.158410,2.747198,780.12,41.70,highres
4.725892,16952759580,0.634888,0.271630,-9.739305,0.000172,0.000483,-0.000201,0.277236,1.158410,2.747198,780.12,41.70,highres
4.729576,16952764697,0.636085,0.259691,-9.738140,0.000473,0.000027,-0.000506,0.277236,1.158410,2.747198,780.12,41.70,highres
4.745470,16952783432,0.632400,0.264495,-9.752379,0.000664,-0.000433,-0.001117,0.277236,1.158410,2.747198,780.13,41.70,highres
4.750954,16952794751,0.631649,0.261617,-9.739277,0.001088,0.000275,-0.001013,0.277236,1.158410,2.747198,780.13,41.70,highres
4.765823,16952804740,0.647307,0.270814,-9.761043,-0.000339,-0.000433,0.000413,0.277236,1.158410,2.747198,780.13,41.70,highres
4.774630,16952814628,0.624537,0.260110,-9.728603,-0.000011,-0.000404,-0.000569,0.277236,1.158410,2.747198,780.13,41.70,highres
4.785738,16952824677,0.645087,0.274691,-9.742766,-0.000383,0.000121,-0.000992,0.264376,1.178602,2.732709,780.13,41.70,highres
4.796496,16952829624,0.624636,0.265420,-9.727299,-0.000716,0.000455,-0.000312,0.264376,1.178602,2.732709,780.13,41.70,highres
4.806984,16952845289,0.627750,0.265128,-9.734548,-0.001492,0.000483,0.000989,0.264376,1.178602,2.732709,780.13,41.70,highres
4.815829,16952852071,0.628150,0.261985,-9.743409,0.000244,0.000333,-0.000279,0.264376,1.178602,2.732709,780.13,41.70,highres
4.825338,16952862255,0.631297,0.264925,-9.745290,0.001271,0.000300,-0.000140,0.264376,1.178602,2.732709,780.13,41.70,highres
4.831227,16952875440,0.619208,0.255500,-9.735657,0.000407,-0.000809,-0.000506,0.264376,1.178602,2.732709,780.13,41.70,highres
4.846993,16952879978,0.625469,0.269236,-9.744250,0.000993,0.000673,0.000410,0.264376,1.178602,2.732709,780.13,41.70,highres
4.851210,16952889863,0.630585,0.273669,-9.735553,-0.000859,0.000393,-0.000035,0.264376,1.178602,2.732709,780.13,41.70,highres
4.867770,16952900378,0.630902,0.267859,-9.744094,0.000213,0.001094,-0.000384,0.264376,1.178602,2.732709,780.13,41.70,highres
4.875964,16952915074,0.638988,0.264626,-9.749390,0.000172,0.001009,-0.001247,0.264376,1.178602,2.732709,780.13,41.70,highres
4.885412,16952927133,0.632494,0.275758,-9.734517,0.000193,-0.000107,-0.000390,0.264376,1.178602,2.732709,780.13,41.70,highres
4.895962,16952931998,0.637282,0.269511,-9.738742,0.000172,-0.000143,-0.000071,0.264376,1.178602,2.732709,780.13,41.70,highres
4.907375,16952941830,0.633009,0.274199,-9.750760,-0.000359,-0.000420,-0.000586,0.264376,1.178602,2.732709,780.13,41.70,highres
4.916235,16952952072,0.638516,0.273950,-9.737454,0.000639,0.000022,-0.000207,0.281885,1.170252,2.723514,780.13,41.70,highres
4.917948,16952962360,0.634888,0.262054,-9.739305,-0.000439,0.001094,-0.000317,0.275629,1.160174,2.725225,780.13,41.70,highres
4.931008,16952972342,0.640563,0.270123,-9.743472,-0.000133,-0.000581,-0.000733,0.275629,1.160174,2.725225,780.13,41.70,highres
4.945534,16952985127,0.637193,0.270419,-9.739734,0.000783,0.000788,-0.001023,0.275629,1.160174,2.725225,780.13,41.70,highres
4.955173,16952995472,0.634611,0.271378,-9.732402,0.001259,-0.000298,-0.000506,0.275629,1.160174,2.725225,780.13,41.70,highres
4.968219,16953001406,0.632855,0.275109,-9.746712,0.000443,0.000177,0.000535,0.275629,1.160174,2.725225,780.13,41.70,highres
4.976051,16953009548,0.640873,0.266842,-9.729729,0.000734,-0.000096,-0.000892,0.275629,1.160174,2.725225,780.13,41.70,highres
4.986447,16953019969,0.637282,0.266842,-9.736912,0.000834,0.001896,0.001021,0.275629,1.160174,2.725225,780.14,41.70,highres
4.997233,16953033481,0.638730,0.275694,-9.744567,0.000335,0.000015,0.000085,0.275629,1.160174,2.725225,780.14,41.70,highres
5.007113,16953045328,0.654565,0.245196,-9.738109,0.001871,0.000508,-0.000372,0.275629,1.160174,2.725225,780.14,41.70,highres
5.015571,16953049854,0.637321,0.265838,-9.740386,0.000448,-0.000187,0.000913,0.275629,1.160174,2.725225,780.14,41.70,highres
5.025795,16953054884,0.631336,0.263983,-9.739264,0.001394,-0.000128,-0.001117,0.275629,1.160174,2.725225,780.14,41.70,highres
5.032468,16953073021,0.641866,0.267397,-9.740621,0.001019,-0.000198,-0.000561,0.275629,1.160174,2.725225,780.14,41.70,highres
5.046429,16953088017,0.633691,0.270433,-9.745291,0.000316,-0.000612,-0.000218,0.275629,1.160174,2.725225,780.14,41.70,highres
5.050053,16953092524,0.626508,0.262054,-9.736912,0.000783,-0.000739,-0.000506,0.280735,1.163452,2.732293,780.14,41.70,highres
5.066790,16953102949,0.644167,0.263251,-9.741901,0.001175,0.000133,0.000585,0.282611,1.174986,2.721357,780.14,41.70,highres
5.075249,16953115598,0.630130,0.278813,-9.735713,0.001088,0.001402,0.000259,0.282611,1.174986,2.721357,780.14,41.70,highres
5.085477,16953120268,0.631138,0.274342,-9.747819,0.001699,0.001589,-0.000011,0.282611,1.174986,2.721357,780.14,41.70,highres
5.096737,16953132448,0.646232,0.283508,-9.745273,-0.000284,0.000328,-0.000356,0.282611,1.174986,2.721357,780.14,41.70,highres
5.106431,16953140924,0.637353,0.252513,-9.737393,0.001594,0.000369,-0.000315,0.282611,1.174986,2.721357,780.14,41.70,highres
5.117003,16953150102,0.652116,0.276841,-9.744446,0.000615,-0.000847,-0.000003,0.282611,1.174986,2.721357,780.14,41.70,highres
5.126525,16953160500,0.653381,0.266891,-9.745963,0.003011,0.000844,-0.001423,0.282611,1.174986,2.721357,780.14,41.70,highres
5.131086,16953170724,0.632494,0.266842,-9.744093,-0.000412,-0.000128,-0.000673,0.282611,1.174986,2.721357,780.14,41.70,highres
5.145759,16953180470,0.640873,0.263251,-9.739305,0.001394,0.000177,-0.000506,0.282611,1.174986,2.721357,780.13,41.70,highres
5.149598,16953190331,0.623130,0.273506,-9.740038,0.000464,0.000018,-0.001276,0.282611,1.174986,2.721357,780.13,41.70,highres
5.166359,16953204016,0.639082,0.277486,-9.741272,0.000783,-0.000128,0.000105,0.282611,1.174986,2.721357,780.13,41.70,highres
5.173713,16953209968,0.633691,0.272827,-9.741699,0.002270,0.001851,-0.000772,0.282611,1.174986,2.721357,780.13,41.70,highres
5.187332,16953220992,0.627705,0.271630,-9.738108,0.000783,-0.000433,-0.000201,0.282611,1.174986,2.721357,780.13,41.70,highres
5.196284,16953235118,0.632334,0.257057,-9.728740,-0.000501,0.000371,-0.000313,0.271462,1.169553,2.732455,780.13,41.70,highres
5.207620,16953240560,0.610552,0.274543,-9.718597,0.001634,-0.000433,0.000264,0.267549,1.180404,2.730619,780.13,41.70,highres
5.216586,16953252489,0.628902,0.259660,-9.753669,-0.001026,-0.000692,-0.001313,0.267549,1.180404,2.730619,780.13,41.70,highres
5.225324,16953263498,0.645443,0.272066,-9.744201,0.003948,0.000427,-0.000784,0.267549,1.180404,2.730619,780.13,41.70,highres
5.235593,16953273411,0.612355,0.281570,-9.737381,0.000066,-0.000178,-0.000534,0.267549,1.180404,2.730619,780.13,41.70,highres
5.246826,16953283541,0.636869,0.269732,-9.761224,0.001604,-0.000128,-0.001423,0.267549,1.180404,2.730619,780.13,41.70,highres
5.248554,16953292954,0.637117,0.256379,-9.739388,0.000030,-0.000006,0.000573,0.267549,1.180404,2.730619,780.13,41.70,highres
5.266139,16953305543,0.625760,0.266842,-9.747684,0.000989,0.000597,-0.000102,0.267549,1.180404,2.730619,780.13,41.70,highres
5.268112,16953310102,0.629435,0.256869,-9.745026,0.001258,0.000008,-0.000914,0.267549,1.180404,2.730619,780.13,41.70,highres
5.268112,16953320292,0.627549,0.277557,-9.744095,0.000988,-0.000329,-0.001121,0.267549,1.180404,2.730619,780.13,41.70,highres
5.268112,16953335530,0.635926,0.274226,-9.742695,-0.000266,0.000524,-0.000893,0.267549,1.180404,2.730619,780.13,41.70,highres
5.308773,16953345787,0.622917,0.266842,-9.738109,-0.000439,0.000523,-0.000164,0.267549,1.180404,2.730619,780.12,41.70,highres
5.315359,16953350799,0.625847,0.271161,-9.739931,0.000626,0.000822,0.000030,0.267549,1.180404,2.730619,780.12,41.70,highres
5.325728,16953360306,0.633044,0.260825,-9.742766,0.000626,0.000326,-0.000506,0.267549,1.180404,2.730619,780.12,41.70,highres
5.329727,16953375030,0.628016,0.255182,-9.732432,0.000653,0.000933,-0.000361,0.283361,1.160095,2.727650,780.12,41.70,highres
5.346447,16953380834,0.637091,0.274405,-9.743821,-0.000498,0.000602,0.000287,0.272615,1.161610,2.724221,780.12,41.70,highres
5.349895,16953387663,0.627011,0.262363,-9.737839,-0.000005,0.000581,-0.000763,0.272615,1.161610,2.724221,780.12,41.70,highres
5.367437,16953404548,0.628329,0.275221,-9.747733,-0.000439,0.000483,-0.001423,0.272615,1.161610,2.724221,780.12,41.70,highres
5.373452,16953410671,0.634380,0.272565,-9.748374,0.000813,-0.001172,-0.000555,0.272615,1.161610,2.724221,780.12,41.70,highres
5.385404,16953420515,0.645661,0.269236,-9.741699,0.000311,0.000705,-0.000173,0.272615,1.161610,2.724221,780.12,41.70,highres
5.397617,16953425327,0.648432,0.265579,-9.758852,0.000783,0.001399,-0.000506,0.272615,1.161610,2.724221,780.12,41.70,highres
5.407749,16953437786,0.632558,0.265209,-9.723048,-0.001050,0.000904,-0.000201,0.272615,1.161610,2.724221,780.12,41.70,highres
5.414757,16953450382,0.630100,0.250083,-9.757260,0.001827,-0.001273,-0.000634,0.272615,1.161610,2.724221,780.12,41.70,highres
5.425509,16953456695,0.639928,0.266061,-9.762086,0.002005,0.000483,-0.000201,0.272615,1.161610,2.724221,780.12,41.70,highres
5.430757,16953467742,0.633389,0.262186,-9.713102,0.000326,0.002161,-0.000509,0.272615,1.161610,2.724221,780.12,41.70,highres
5.446681,16953477864,0.627705,0.260857,-9.760853,0.002797,-0.000186,-0.000077,0.272615,1.161610,2.724221,780.12,41.70,highres
5.448379,16953488082,0.636085,0.268039,-9.733319,-0.000472,0.002010,-0.001084,0.272615,1.161610,2.724221,780.12,41.70,highres
5.466648,16953498020,0.610957,0.280794,-9.734868,-0.000168,0.002926,-0.000065,0.272615,1.161610,2.724221,780.11,41.70,highres
5.475207,16953510734,0.625488,0.267106,-9.763410,0.002024,-0.000395,-0.000038,0.283013,1.168807,2.726571,780.11,41.70,highres
5.486203,16953515274,0.644011,0.266594,-9.735940,0.000367,0.000308,0.000160,0.264397,1.178566,2.735894,780.11,41.70,highres
5.495805,16953528785,0.639676,0.268039,-9.754869,0.001699,0.000184,0.000407,0.264397,1.178566,2.735894,780.11,41.70,highres
5.504352,16953538327,0.642841,0.254872,-9.754604,0.000912,0.000354,0.000410,0.264397,1.178566,2.735894,780.11,41.70,highres
5.515165,16953547485,0.640344,0.255765,-9.735436,-0.000133,0.000047,-0.001291,0.264397,1.178566,2.735894,780.11,41.70,highres
5.524700,16953555376,0.628625,0.245504,-9.738316,0.000648,0.000483,-0.000371,0.264397,1.178566,2.735894,780.11,41.70,highres
5.529916,16953565425,0.629447,0.263686,-9.743114,0.000080,-0.000341,0.000440,0.264397,1.178566,2.735894,780.11,41.70,highres
5.546631,16953575208,0.636832,0.263251,-9.733123,-0.000133,-0.000128,-0.001117,0.264397,1.178566,2.735894,780.12,41.70,highres
5.552025,16953585306,0.639676,0.260857,-9.738108,0.001834,-0.000519,-0.000471,0.264397,1.178566,2.735894,780.12,41.70,highres
5.567668,16953597863,0.640200,0.267241,-9.737761,-0.000568,0.000019,-0.000185,0.264397,1.178566,2.735894,780.12,41.70,highres
5.574857,16953606200,0.638738,0.262454,-9.751361,-0.000407,0.000100,-0.000856,0.264397,1.178566,2.735894,780.12,41.70,highres
5.585015,16953618205,0.624489,0.277310,-9.741508,0.000544,0.001012,-0.000107,0.264397,1.178566,2.735894,780.12,41.70,highres
5.597884,16953630415,0.634375,0.263441,-9.750221,0.001499,0.000812,-0.000084,0.264397,1.178566,2.735894,780.12,41.70,highres
5.606411,16953635518,0.619868,0.262462,-9.744947,0.001607,0.001140,-0.000877,0.264397,1.178566,2.735894,780.12,41.70,highres
5.615584,16953648200,0.625442,0.270446,-9.730980,0.001324,0.000812,0.000061,0.275856,1.167607,2.731233,780.12,41.70,highres
5.624594,16953655825,0.625442,0.275234,-9.741753,0.001944,0.001118,-0.000845,0.272963,1.166287,2.735499,780.12,41.70,highres
5.635932,16953666499,0.629455,0.260416,-9.748838,0.000058,0.000332,0.000192,0.272963,1.166287,2.735499,780.12,41.70,highres
5.645749,16953675460,0.647339,0.267517,-9.746339,0.000407,0.000202,0.000672,0.272963,1.166287,2.735499,780.12,41.70,highres
5.648589,16953681580,0.626571,0.270294,-9.742477,0.002230,0.000756,-0.000426,0.272963,1.166287,2.735499,780.12,41.70,highres
5.666300,16953687848,0.633699,0.266415,-9.738161,-0.000497,0.000381,0.000314,0.272963,1.166287,2.735499,780.12,41.70,highres
5.675075,16953703833,0.621335,0.267021,-9.723433,0.000010,0.000171,0.000397,0.272963,1.166287,2.735499,780.12,41.70,highres
5.685802,16953716187,0.650791,0.259297,-9.756847,0.001018,0.002034,0.000061,0.272963,1.166287,2.735499,780.12,41.70,highres
5.696821,16953725232,0.639806,0.264460,-9.727389,-0.000509,0.000321,0.000606,0.272963,1.166287,2.735499,780.12,41.70,highres
5.706822,16953735562,0.638584,0.261187,-9.740530,0.000102,-0.000104,-0.000244,0.272963,1.166287,2.735499,780.13,41.70,highres
5.716468,16953743530,0.638655,0.256758,-9.742838,0.000102,-0.000001,-0.000857,0.272963,1.166287,2.735499,780.13,41.70,highres
5.724918,16953752127,0.636972,0.264585,-9.736333,-0.000357,-0.000212,-0.000969,0.272963,1.166287,2.735499,780.13,41.70,highres
5.729652,16953773273,0.629975,0.267580,-9.748916,-0.000517,0.000105,-0.001161,0.272963,1.166287,2.735499,780.13,41.70,highres
5.745273,16953778438,0.628849,0.257324,-9.736965,0.000278,-0.000409,-0.000421,0.272963,1.166287,2.735499,780.13,41.70,highres
5.750305,16953792461,0.629976,0.260546,-9.737795,0.000102,0.000378,-0.001642,0.278785,1.167454,2.727149,780.13,41.70,highres
5.764475,16953805565,0.631440,0.265644,-9.744563,0.000250,-0.000340,0.000061,0.280079,1.182627,2.738045,780.13,41.70,highres
5.774472,16953810616,0.632542,0.264972,-9.735768,0.000362,0.000988,-0.000114,0.280079,1.182627,2.738045,780.14,41.70,highres
5.785162,16953820713,0.641003,0.271643,-9.741753,0.000093,0.000664,-0.000244,0.280079,1.182627,2.738045,780.14,41.70,highres
5.796863,16953829962,0.633821,0.260869,-9.746541,0.001324,-0.000409,-0.000550,0.280079,1.182627,2.738045,780.14,41.70,highres
5.804691,16953840785,0.642993,0.274046,-9.737366,-0.000509,0.000992,0.000056,0.280079,1.182627,2.738045,780.14,41.70,highres
5.814971,16953845100,0.631594,0.257362,-9.738505,-0.000357,-0.000792,-0.001009,0.280079,1.182627,2.738045,780.14,41.70,highres
5.825973,16953857995,0.632124,0.268091,-9.746502,0.000407,-0.000104,-0.001151,0.280079,1.182627,2.738045,780.14,41.70,highres
5.831092,16953868084,0.634574,0.269249,-9.745424,0.000853,0.000895,-0.000550,0.280079,1.182627,2.738045,780.14,41.70,highres
5.847147,16953882430,0.633561,0.269335,-9.733840,-0.000127,0.000889,0.000901,0.280079,1.182627,2.738045,780.14,41.70,highres
5.848959,16953896762,0.628642,0.275301,-9.739000,0.000340,0.000743,-0.000335,0.280079,1.182627,2.738045,780.14,41.70,highres
5.866638,16953903238,0.634134,0.275288,-9.725159,-0.000123,0.001423,-0.000550,0.280079,1.182627,2.738045,780.13,41.70,highres
5.874119,16953914620,0.636259,0.266487,-9.741570,0.000583,0.000859,0.000626,0.280079,1.182627,2.738045,780.13,41.70,highres
5.886968,16953924064,0.641593,0.270498,-9.732124,0.000263,0.000218,0.000672,0.280079,1.182627,2.738045,780.13,41.70,highres
5.895776,16953928533,0.638368,0.274274,-9.737687,0.000270,0.000034,0.000366,0.281920,1.169924,2.730733,780.13,41.70,highres
5.907570,16953941219,0.634686,0.261201,-9.742000,0.000176,-0.000958,-0.000086,0.271732,1.170926,2.742273,780.13,41.70,highres
5.914739,16953953997,0.638398,0.276642,-9.751065,0.000165,-0.000346,-0.000792,0.271732,1.170926,2.742273,780.13,41.70,highres
5.926429,16953963984,0.639921,0.252950,-9.742524,0.000683,0.000645,-0.000717,0.271732,1.170926,2.742273,780.13,41.70,highres
5.930885,16953973592,0.635401,0.253830,-9.743716,0.000394,-0.000006,-0.001063,0.271732,1.170926,2.742273,780.13,41.70,highres
5.944420,16953984253,0.626427,0.266219,-9.740556,0.000533,0.000202,0.000241,0.271732,1.170926,2.742273,780.13,41.70,highres
5.949790,16953995547,0.631427,0.264460,-9.745344,0.000217,0.000222,-0.001256,0.271732,1.170926,2.742273,780.13,41.70,highres
5.964578,16954001130,0.623599,0.271550,-9.742491,-0.000367,-0.000760,-0.000199,0.271732,1.170926,2.742273,780.13,41.70,highres
5.974261,16954012946,0.637412,0.258475,-9.740556,0.000246,-0.000104,-0.000730,0.271732,1.170926,2.742273,780.13,41.70,highres
5.985877,16954018276,0.641620,0.272112,-9.730436,0.001161,0.000832,-0.001038,0.271732,1.170926,2.742273,780.13,41.70,highres
5.995807,16954031603,0.636604,0.269668,-9.740943,0.001018,0.000963,-0.000550,0.271732,1.170926,2.742273,780.13,41.70,highres
6.007094,16954042344,0.639247,0.265098,-9.746305,0.001303,0.000507,-0.000876,0.271732,1.170926,2.742273,780.13,41.70,highres
6.015029,16954048819,0.636901,0.266321,-9.737577,0.001454,0.000522,-0.000870,0.271732,1.170926,2.742273,780.13,41.70,highres
6.024742,16954061617,0.628227,0.265012,-9.748544,0.000848,0.000399,-0.000550,0.271732,1.170926,2.742273,780.13,41.70,highres
6.030314,16954068079,0.632790,0.267440,-9.747292,0.000034,-0.000580,-0.000907,0.271732,1.170926,2.742273,780.13,41.70,highres
6.047042,16954084654,0.640509,0.266432,-9.729855,0.001390,-0.000450,-0.000112,0.285808,1.173240,2.749427,780.13,41.70,highres
6.049397,16954093252,0.631427,0.274037,-9.736965,0.001018,-0.000104,-0.001161,0.285808,1.173240,2.749427,780.13,41.70,highres
6.066303,16954104334,0.641473,0.261362,-9.748219,0.000541,0.000507,0.000023,0.285808,1.173240,2.749427,780.13,41.70,highres
6.077250,16954116643,0.644123,0.276091,-9.736795,0.000922,0.000926,-0.000148,0.285808,1.173240,2.749427,780.13,41.70,highres
6.085029,16954121353,0.644665,0.256269,-9.735767,0.001171,0.000048,-0.001161,0.285808,1.173240,2.749427,780.13,41.70,highres
6.096004,16954130991,0.645229,0.270103,-9.752453,0.000147,-0.000454,-0.000595,0.285808,1.173240,2.749427,780.13,41.70,highres
6.105667,16954138535,0.635000,0.266498,-9.741715,0.000189,-0.000191,0.000257,0.285808,1.173240,2.749427,780.13,41.70,highres
6.115553,16954156113,0.648876,0.260980,-9.747455,-0.000131,-0.000031,0.000410,0.285808,1.173240,2.749427,780.13,41.70,highres
6.124771,16954161524,0.640278,0.271525,-9.738900,-0.000637,0.001167,-0.000116,0.285808,1.173240,2.749427,780.13,41.70,highres
6.135080,16954166757,0.629033,0.265657,-9.730980,0.000713,0.000812,0.000061,0.285808,1.173240,2.749427,780.13,41.70,highres
6.147306,16954182251,0.624708,0.264335,-9.732997,-0.001217,0.000286,-0.000550,0.285808,1.173240,2.749427,780.13,41.70,highres
6.150782,16954188563,0.626353,0.266854,-9.738753,0.001408,-0.000020,-0.000550,0.285808,1.173240,2.749427,780.13,41.70,highres
6.165771,16954206250,0.621640,0.263629,-9.743316,0.001762,0.000467,-0.000377,0.285808,1.173240,2.749427,780.13,41.70,highres
6.176959,16954214130,0.639575,0.263263,-9.744147,0.000084,0.000393,-0.000855,0.276134,1.161968,2.731704,780.13,41.70,highres
6.186037,16954219242,0.637158,0.264460,-9.731502,-0.000509,0.000704,-0.001014,0.277817,1.169708,2.739551,780.14,41.70,highres
6.197053,16954228543,0.632786,0.278372,-9.743856,0.000407,-0.000168,-0.001530,0.277817,1.169708,2.739551,780.14,41.70,highres
6.206041,16954238774,0.638609,0.271911,-9.740555,-0.000202,0.000203,0.000672,0.277817,1.169708,2.739551,780.14,41.70,highres
6.215241,16954251258,0.641243,0.253926,-9.748457,0.000403,-0.001094,-0.000701,0.277817,1.169708,2.739551,780.14,41.70,highres
6.224956,16954256381,0.637317,0.262161,-9.744262,0.000774,0.000141,-0.000733,0.277817,1.169708,2.739551,780.14,41.70,highres
6.229924,16954268337,0.635396,0.260744,-9.745029,0.000299,0.001383,-0.000767,0.277817,1.169708,2.739551,780.14,41.70,highres
6.246618,16954278404,0.633821,0.269249,-9.742949,0.000054,-0.000543,-0.000636,0.277817,1.169708,2.739551,780.14,41.70,highres
6.257211,16954288133,0.621851,0.263263,-9.744147,0.001324,-0.000401,-0.001336,0.277817,1.169708,2.739551,780.14,41.70,highres
6.265964,16954298072,0.642307,0.264567,-9.749907,-0.000509,-0.001020,-0.000550,0.277817,1.169708,2.739551,780.13,41.70,highres
6.269341,16954311229,0.633821,0.264460,-9.750133,-0.000203,-0.000336,-0.001172,0.277817,1.169708,2.739551,780.13,41.70,highres
6.269341,16954321934,0.633341,0.263507,-9.748218,0.000749,0.000202,-0.000777,0.277817,1.169708,2.739551,780.13,41.70,highres
6.269341,16954334124,0.649383,0.271643,-9.736965,0.000102,0.002010,-0.000409,0.277817,1.169708,2.739551,780.13,41.70,highres
6.309821,16954338170,0.633718,0.265224,-9.733591,0.000896,0.000387,-0.000490,0.277817,1.169708,2.739551,780.13,41.70,highres
6.315137,16954352957,0.644594,0.251293,-9.750133,0.000713,0.001118,-0.000855,0.274084,1.161895,2.728018,780.13,41.70,highres
6.329025,16954362011,0.623837,0.267759,-9.739066,0.000407,-0.000409,0.000672,0.290218,1.172149,2.727871,780.13,41.70,highres
6.329877,16954368193,0.635018,0.264460,-9.741601,0.001148,0.000598,0.000061,0.290218,1.172149,2.727871,780.13,41.70,highres
6.345369,16954383905,0.635631,0.265640,-9.737549,0.000863,-0.000107,-0.000244,0.290218,1.172149,2.727871,780.13,41.70,highres
6.350932,16954393828,0.631788,0.272422,-9.738552,0.000609,0.000202,-0.000648,0.290218,1.172149,2.727871,780.13,41.70,highres
6.367618,16954404272,0.640572,0.263197,-9.738662,-0.000796,0.000058,-0.000874,0.290218,1.172149,2.727871,780.13,41.70,highres
6.376840,16954413298,0.634436,0.268084,-9.744696,-0.000195,0.000995,-0.000690,0.290218,1.172149,2.727871,780.13,41.70,highres
6.384811,16954421150,0.632791,0.275623,-9.745428,-0.000619,0.000483,-0.000440,0.290218,1.172149,2.727871,780.13,41.70,highres
6.397164,16954435762,0.625360,0.262574,-9.746967,0.000304,-0.000715,-0.001161,0.290218,1.172149,2.727871,780.13,41.70,highres
6.407465,16954441449,0.631221,0.266854,-9.748620,0.000271,-0.000207,-0.000550,0.290218,1.172149,2.727871,780.13,41.70,highres
6.415370,16954446397,0.633790,0.269637,-9.738550,0.001018,0.001423,-0.000855,0.290218,1.172149,2.727871,780.13,41.70,highres
6.425103,16954457031,0.638955,0.268398,-9.756888,-0.000814,-0.000492,-0.000383,0.290218,1.172149,2.727871,780.11,41.70,highres
6.431064,16954474989,0.637412,0.259672,-9.746542,0.000279,-0.000971,-0.000984,0.290218,1.172149,2.727871,780.11,41.70,highres
6.446219,16954478824,0.642280,0.261207,-9.748491,0.000075,-0.000296,-0.000158,0.290218,1.172149,2.727871,780.11,41.70,highres
6.448064,16954491912,0.636215,0.269249,-9.739359,0.001429,-0.000820,-0.000244,0.278020,1.164197,2.728878,780.11,41.70,highres
6.465863,16954504678,0.628927,0.264460,-9.738527,0.001218,-0.000808,-0.001108,0.285983,1.149333,2.746893,780.11,41.70,highres
6.474240,16954515112,0.632971,0.266292,-9.753235,0.000569,0.000021,-0.000532,0.285983,1.149333,2.746893,780.11,41.70,highres
6.485808,16954525278,0.635668,0.274482,-9.745241,0.001199,0.000507,0.000242,0.285983,1.149333,2.746893,780.11,41.70,highres
6.492091,16954530186,0.632624,0.263263,-9.740554,0.000713,0.001423,0.000366,0.285983,1.149333,2.746893,780.11,41.70,highres
6.505496,16954542154,0.632228,0.260869,-9.735256,0.000116,0.000812,-0.000987,0.285983,1.149333,2.746893,780.12,41.70,highres
6.516579,16954552265,0.638193,0.261285,-9.748935,0.001716,0.000333,0.000193,0.285983,1.149333,2.746893,780.12,41.70,highres
6.526106,16954562080,0.636215,0.270446,-9.747738,0.000407,0.000202,-0.001161,0.285983,1.149333,2.746893,780.12,41.70,highres
6.529382,16954576291,0.630729,0.265260,-9.751529,-0.000203,0.000692,-0.000244,0.285983,1.149333,2.746893,780.12,41.70,highres
6.544904,16954582468,0.632062,0.270446,-9.734914,-0.000202,-0.000563,0.000215,0.285983,1.149333,2.746893,780.12,41.70,highres
6.552760,16954595938,0.635131,0.268051,-9.739788,0.000436,-0.000047,-0.000188,0.285983,1.149333,2.746893,780.12,41.70,highres
6.566702,16954599795,0.644294,0.266854,-9.741153,0.001171,0.000965,-0.000473,0.285983,1.149333,2.746893,780.12,41.70,highres
6.573910,16954611351,0.628231,0.272364,-9.740554,0.000351,-0.000084,-0.000727,0.285983,1.149333,2.746893,780.12,41.70,highres
6.585289,16954624163,0.631593,0.265124,-9.737476,-0.000565,0.000109,-0.001009,0.285983,1.149333,2.746893,780.13,41.70,highres
6.596502,16954636052,0.635688,0.257942,-9.750248,-0.000565,0.001481,-0.000236,0.281092,1.162331,2.724949,780.13,41.70,highres
6.606248,16954642423,0.627241,0.259407,-9.740620,0.000046,0.000147,-0.000020,0.286867,1.168891,2.717180,780.13,41.70,highres
6.616673,16954653590,0.635565,0.264606,-9.732019,0.000264,-0.000193,0.000032,0.286867,1.168891,2.717180,780.13,41.70,highres
6.625486,16954666160,0.630370,0.267071,-9.744390,0.000843,-0.000694,-0.000206,0.286867,1.168891,2.717180,780.13,41.70,highres
6.635410,16954676030,0.636276,0.259574,-9.741071,0.001054,0.000619,-0.000579,0.286867,1.168891,2.717180,780.13,41.70,highres
6.645722,16954681928,0.638975,0.262879,-9.739146,0.000505,0.001141,-0.000427,0.286867,1.168891,2.717180,780.13,41.70,highres
6.647531,16954686244,0.630779,0.264160,-9.741668,0.000962,-0.000389,-0.000274,0.286867,1.168891,2.717180,780.13,41.70,highres
6.665483,16954702311,0.634891,0.271638,-9.738005,0.000342,0.000718,-0.001085,0.286867,1.168891,2.717180,780.13,42.30,highres
6.675372,16954706441,0.642506,0.267051,-9.733650,0.001573,0.000833,-0.000884,0.286867,1.168891,2.717180,780.13,42.30,highres
6.685733,16954716317,0.619055,0.259805,-9.733355,0.001107,-0.000089,-0.000123,0.286867,1.168891,2.717180,780.13,42.30,highres
6.696927,16954732163,0.623703,0.274907,-9.733977,0.000556,0.000021,0.000032,0.286867,1.168891,2.717180,780.13,42.30,highres
6.705432,16954736302,0.624592,0.270419,-9.740941,0.000545,-0.000612,0.000143,0.286867,1.168891,2.717180,780.13,42.30,highres
6.715874,16954747011,0.643626,0.265167,-9.746385,0.001268,0.000833,0.000032,0.286867,1.168891,2.717180,780.13,42.30,highres
6.725937,16954751784,0.640877,0.259814,-9.748183,0.000846,0.000294,0.000149,0.286867,1.168891,2.717180,780.13,42.30,highres
6.729334,16954764239,0.634819,0.270949,-9.739202,-0.000170,0.000922,-0.001406,0.278656,1.158175,2.732339,780.13,42.30,highres
6.746595,16954773751,0.623417,0.266149,-9.731890,0.000987,0.001444,-0.000225,0.279464,1.174893,2.713939,780.12,42.30,highres
6.750189,16954784815,0.638131,0.271075,-9.739906,0.000198,0.000377,-0.000731,0.279464,1.174893,2.713939,780.12,42.30,highres
6.765492,16954796484,0.640877,0.262062,-9.741597,-0.000344,0.001268,-0.000007,0.279464,1.174893,2.713939,780.12,42.30,highres
6.773459,16954806831,0.634891,0.250616,-9.750125,0.001570,-0.001408,-0.000379,0.279464,1.174893,2.713939,780.12,42.30,highres
6.785805,16954819326,0.634891,0.269244,-9.740398,0.000860,0.000120,0.000032,0.279464,1.174893,2.713939,780.12,42.30,highres
6.796126,16954827196,0.620359,0.278832,-9.734402,0.000208,0.000222,-0.001040,0.279464,1.174893,2.713939,780.12,42.30,highres
6.805749,16954836871,0.629757,0.261946,-9.732099,0.000046,0.000222,-0.001190,0.279464,1.174893,2.713939,780.12,42.30,highres
6.815028,16954846770,0.631407,0.262500,-9.744653,0.000657,-0.000389,-0.000884,0.279464,1.174893,2.713939,780.12,42.30,highres
6.824365,16954862251,0.640877,0.262062,-9.740399,0.000083,-0.000523,-0.000140,0.279464,1.174893,2.713939,780.11,42.30,highres
6.835355,16954866583,0.641867,0.256940,-9.738007,0.001268,0.001138,0.000032,0.279464,1.174893,2.713939,780.11,42.30,highres
6.847198,16954875498,0.635694,0.263422,-9.748384,0.000497,0.000368,0.000470,0.279464,1.174893,2.713939,780.11,42.30,highres
6.848843,16954887052,0.635733,0.262046,-9.741952,-0.000565,0.000833,-0.000161,0.279464,1.174893,2.713939,780.11,42.30,highres
6.866634,16954899316,0.630103,0.259668,-9.743991,0.001433,0.000667,0.000007,0.279464,1.174893,2.713939,780.11,42.30,highres
6.873783,16954909201,0.644468,0.265653,-9.746385,-0.000456,0.000636,-0.001101,0.278986,1.164230,2.730793,780.11,42.30,highres
6.885623,16954919616,0.632534,0.273461,-9.746440,0.000938,0.001126,0.000484,0.285186,1.167272,2.711038,780.11,42.30,highres
6.895845,16954934782,0.639679,0.260865,-9.732019,0.000657,0.000090,-0.001033,0.285186,1.167272,2.711038,780.11,42.30,highres
6.908239,16954944891,0.643779,0.267904,-9.745223,0.000657,0.001601,-0.000736,0.285186,1.167272,2.711038,780.12,42.30,highres
6.914750,16954950403,0.632497,0.260157,-9.747363,-0.000409,0.001899,-0.001339,0.285186,1.167272,2.711038,780.12,42.30,highres
6.925294,16954962077,0.639958,0.260587,-9.746533,0.001519,0.001012,-0.000202,0.285186,1.167272,2.711038,780.12,42.30,highres
6.930962,16954972593,0.632497,0.264456,-9.754765,0.000962,0.003276,0.000032,0.285186,1.167272,2.711038,780.12,42.30,highres
6.946338,16954982785,0.638785,0.268047,-9.745518,-0.000435,0.000222,-0.000534,0.285186,1.167272,2.711038,780.12,42.30,highres
6.953844,16954992209,0.643861,0.262067,-9.734403,0.001421,0.000222,-0.000120,0.285186,1.167272,2.711038,780.12,42.30,highres
6.964997,16955005262,0.635974,0.263259,-9.737759,-0.000473,0.001046,-0.000031,0.285186,1.167272,2.711038,780.12,42.30,highres
6.974646,16955014320,0.634175,0.266125,-9.739683,-0.000134,0.000260,-0.001315,0.285186,1.167272,2.711038,780.12,42.30,highres
6.985752,16955025013,0.640877,0.270441,-9.738005,-0.000870,-0.000695,-0.000274,0.285186,1.167272,2.711038,780.13,42.30,highres
6.996896,16955037071,0.640230,0.262952,-9.753631,0.000430,0.000222,-0.000806,0.285186,1.167272,2.711038,780.13,42.30,highres
7.006031,16955044834,0.639679,0.265141,-9.733563,-0.000689,0.000495,-0.000884,0.285186,1.167272,2.711038,780.13,42.30,highres
7.015394,16955054329,0.625315,0.266850,-9.740399,0.000657,-0.000695,0.000032,0.279991,1.167768,2.727191,780.13,42.30,highres
7.026997,16955064528,0.633742,0.268462,-9.747630,0.000868,0.001032,-0.000274,0.272564,1.187064,2.731575,780.13,42.30,highres
7.030610,16955069478,0.633038,0.271755,-9.746807,0.000801,0.000988,-0.001190,0.272564,1.187064,2.731575,780.13,42.30,highres
7.047083,16955082143,0.634570,0.270441,-9.735682,0.000046,-0.000695,0.000032,0.272564,1.187064,2.731575,780.13,42.30,highres
7.048613,16955094509,0.629137,0.260209,-9.751289,0.000159,-0.000284,0.000643,0.272564,1.187064,2.731575,780.13,42.30,highres
7.065751,16955103269,0.631216,0.254795,-9.743163,0.000657,-0.000389,-0.001190,0.272564,1.187064,2.731575,780.12,42.30,highres
7.073204,16955112437,0.622465,0.267422,-9.736977,0.000962,-0.001000,-0.000884,0.272564,1.187064,2.731575,780.12,42.30,highres
7.087365,16955117595,0.631806,0.266412,-9.744868,0.001200,0.000018,-0.001020,0.272564,1.187064,2.731575,780.12,42.30,highres
7.096877,16955129527,0.637285,0.257274,-9.743991,-0.000241,-0.001089,-0.000884,0.272564,1.187064,2.731575,780.12,42.30,highres
7.106642,16955139420,0.633999,0.268940,-9.739594,-0.000222,0.000624,-0.000236,0.272564,1.187064,2.731575,780.12,42.30,highres
7.117070,16955146817,0.628906,0.269244,-9.745187,0.000267,-0.000655,-0.000754,0.272564,1.187064,2.731575,780.12,42.30,highres
7.125606,16955156883,0.635633,0.274894,-9.743533,0.000046,0.000222,-0.001495,0.272564,1.187064,2.731575,780.12,42.30,highres
7.130037,16955164440,0.648612,0.265937,-9.744812,0.000046,0.000633,-0.000391,0.272564,1.187064,2.731575,780.12,42.30,highres
7.147625,16955177140,0.634891,0.277624,-9.742794,0.000534,0.001028,0.000045,0.272564,1.187064,2.731575,780.13,42.30,highres
7.150338,16955187070,0.628804,0.261959,-9.748471,0.000871,0.000558,0.000123,0.274803,1.162333,2.725576,780.13,42.30,highres
7.166414,16955196914,0.637937,0.263532,-9.738194,-0.000260,-0.000389,0.000337,0.272034,1.150312,2.731868,780.13,42.30,highres
7.175071,16955208307,0.636024,0.266223,-9.743862,-0.000260,0.000527,-0.000579,0.272034,1.150312,2.731868,780.13,42.30,highres
7.186201,16955214260,0.631458,0.268908,-9.728262,0.000591,0.000396,-0.001975,0.272034,1.150312,2.731868,780.13,42.30,highres
7.196687,16955227169,0.636509,0.271849,-9.751035,0.000481,-0.000602,0.000643,0.272034,1.150312,2.731868,780.13,42.30,highres
7.207045,16955232405,0.638636,0.277471,-9.740102,0.000047,-0.000234,0.000033,0.272034,1.150312,2.731868,780.13,42.30,highres
7.217389,16955244688,0.629670,0.266196,-9.743447,0.000439,0.000484,-0.000535,0.272034,1.150312,2.731868,780.13,42.30,highres
7.227115,16955259786,0.644353,0.265123,-9.745646,0.000798,0.001600,-0.000415,0.272034,1.150312,2.731868,780.13,42.30,highres
7.230289,16955272515,0.645477,0.268469,-9.751680,0.000621,-0.000667,-0.000339,0.272034,1.150312,2.731868,780.13,42.30,highres
7.246755,16955283158,0.637232,0.264260,-9.742168,0.000351,0.000227,-0.000422,0.272034,1.150312,2.731868,780.13,42.30,highres
7.249215,16955292682,0.633694,0.263259,-9.741595,-0.000565,0.000527,-0.001495,0.272034,1.150312,2.731868,780.13,42.30,highres
7.265561,16955302493,0.636088,0.262062,-9.740401,0.000351,-0.000084,-0.000884,0.272034,1.150312,2.731868,780.13,42.30,highres
7.273239,16955310464,0.640452,0.259513,-9.742022,0.000854,-0.000370,-0.001387,0.272034,1.150312,2.731868,780.13,42.30,highres
7.273239,16955321825,0.632497,0.271638,-9.745187,0.000337,0.000513,-0.000778,0.272034,1.150312,2.731868,780.13,42.30,highres
7.273239,16955332257,0.635185,0.278870,-9.732801,0.000302,0.000104,-0.000815,0.274579,1.164112,2.729854,780.13,42.30,highres
7.273239,16955342882,0.637789,0.263826,-9.748086,0.000528,0.000045,-0.000756,0.269372,1.158171,2.729450,780.13,42.30,highres
7.315368,16955352199,0.634971,0.265074,-9.747123,-0.000124,0.000392,-0.001020,0.269372,1.158171,2.729450,780.13,42.30,highres
7.327317,16955363711,0.636088,0.265653,-9.735611,0.000657,0.000527,-0.000884,0.269372,1.158171,2.729450,780.13,42.30,highres
7.329919,16955374947,0.627185,0.269777,-9.731759,0.000215,0.000697,0.000065,0.269372,1.158171,2.729450,780.13,42.30,highres
7.347683,16955379454,0.633616,0.266284,-9.737361,-0.000260,0.000647,-0.000295,0.269372,1.158171,2.729450,780.13,42.30,highres
7.355072,16955394864,0.630073,0.259729,-9.729135,-0.000268,0.000230,0.000791,0.269372,1.158171,2.729450,780.13,42.30,highres
7.365745,16955399789,0.636585,0.263462,-9.740920,0.000962,0.000972,-0.000038,0.269372,1.158171,2.729450,780.13,42.30,highres
7.374443,16955414747,0.620174,0.264456,-9.743500,0.000474,0.000404,-0.000574,0.269372,1.158171,2.729450,780.13,42.30,highres
7.385331,16955425097,0.637552,0.265431,-9.732996,0.000046,0.001498,-0.000950,0.269372,1.158171,2.729450,780.13,42.30,highres
7.396680,16955433274,0.646962,0.259668,-9.737638,-0.000789,-0.000002,-0.000274,0.269372,1.158171,2.729450,780.13,42.30,highres
7.407608,16955445156,0.634117,0.266220,-9.746455,0.000351,0.001444,-0.000099,0.269372,1.158171,2.729450,780.13,42.30,highres
7.416185,16955449971,0.628796,0.261629,-9.734847,0.000056,-0.000990,-0.000412,0.269372,1.158171,2.729450,780.13,42.30,highres
7.424295,16955464702,0.620527,0.269244,-9.752371,-0.001176,-0.000695,0.000643,0.269372,1.158171,2.729450,780.13,42.30,highres
7.431291,16955478443,0.631779,0.262301,-9.739921,0.000229,-0.000023,-0.000396,0.279165,1.163670,2.727060,780.13,42.30,highres
7.447026,16955483766,0.627127,0.269826,-9.736532,-0.000565,0.000449,0.000486,0.257651,1.166865,2.747812,780.13,42.30,highres
7.448751,16955492991,0.637285,0.262062,-9.736809,0.000351,0.000527,-0.001190,0.257651,1.166865,2.747812,780.13,42.30,highres
7.465046,16955504171,0.628479,0.264570,-9.743990,0.000657,0.000556,-0.000579,0.257651,1.166865,2.747812,780.12,42.30,highres
7.473603,16955515614,0.638203,0.266459,-9.738061,0.000497,-0.000389,-0.000899,0.257651,1.166865,2.747812,780.12,42.30,highres
7.484149,16955519826,0.626830,0.258947,-9.749616,0.000617,0.000129,-0.000539,0.257651,1.166865,2.747812,780.12,42.30,highres
7.497019,16955534867,0.622780,0.269296,-9.738198,0.000877,0.000014,-0.001055,0.257651,1.166865,2.747812,780.12,42.30,highres
7.506421,16955545036,0.631579,0.259737,-9.747158,-0.000744,-0.000084,-0.000579,0.257651,1.166865,2.747812,780.12,42.30,highres
7.516808,16955554935,0.621306,0.262119,-9.745131,-0.000488,0.000818,-0.000274,0.257651,1.166865,2.747812,780.12,42.30,highres
7.524923,16955565577,0.636088,0.265653,-9.734415,-0.000260,0.000833,-0.000138,0.257651,1.166865,2.747812,780.12,42.30,highres
7.530875,16955572567,0.636840,0.267573,-9.730628,0.000891,0.001678,-0.000508,0.257651,1.166865,2.747812,780.12,42.30,highres
7.547536,16955584794,0.642553,0.268047,-9.747581,-0.000456,0.000310,-0.000579,0.257651,1.166865,2.747812,780.13,42.30,highres
7.552710,16955594841,0.628594,0.270703,-9.741907,-0.000045,0.000163,-0.000734,0.257651,1.166865,2.747812,780.13,42.30,highres
7.565761,16955601140,0.629090,0.269384,-9.735610,0.001009,0.000058,-0.001155,0.257651,1.166865,2.747812,780.13,42.30,highres
7.573728,16955612851,0.636802,0.268366,-9.747172,0.000395,-0.000285,-0.000279,0.279604,1.165442,2.724718,780.13,42.30,highres
7.587832,16955625399,0.623098,0.268437,-9.740370,0.000796,0.000738,-0.001102,0.287629,1.154519,2.721282,780.13,42.30,highres
7.590650,16955635107,0.635077,0.259688,-9.737476,0.001134,-0.000073,-0.000291,0.287629,1.154519,2.721282,780.13,42.30,highres
7.606026,16955640361,0.642496,0.268863,-9.737942,0.000197,-0.001190,0.000116,0.287629,1.154519,2.721282,780.13,42.30,highres
7.614686,16955655359,0.631583,0.269127,-9.729164,0.001654,0.001674,-0.001293,0.287629,1.154519,2.721282,780.13,42.30,highres
7.626204,16955661124,0.633533,0.261460,-9.731647,0.001218,0.001002,-0.001061,0.287629,1.154519,2.721282,780.13,42.30,highres
7.632672,16955670559,0.646902,0.277120,-9.741560,0.000511,0.000366,0.000549,0.287629,1.154519,2.721282,780.13,42.30,highres
7.647329,16955683471,0.641291,0.263473,-9.736684,0.000439,0.001317,-0.000460,0.287629,1.154519,2.721282,780.13,42.30,highres
7.649101,16955692431,0.629321,0.262082,-9.741934,0.000913,0.000232,-0.000597,0.287629,1.154519,2.721282,780.13,42.30,highres
7.665801,16955703755,0.627919,0.264046,-9.740083,0.001277,0.001178,0.000152,0.287629,1.154519,2.721282,780.13,42.30,highres
7.674693,16955715206,0.636123,0.264857,-9.746288,0.000915,0.000540,-0.000497,0.287629,1.154519,2.721282,780.13,42.30,highres
7.684818,16955725075,0.635306,0.274428,-9.751007,0.000026,-0.000214,0.000319,0.287629,1.154519,2.721282,780.13,42.30,highres
7.695971,16955730325,0.632912,0.272855,-9.739540,0.000913,-0.000684,0.000625,0.287629,1.154519,2.721282,780.13,42.30,highres
7.706824,16955740849,0.651856,0.263659,-9.729680,-0.000474,0.000043,-0.000762,0.287629,1.154519,2.721282,780.13,42.30,highres
7.715148,16955756266,0.652894,0.263260,-9.748692,0.000725,-0.000353,0.000319,0.279858,1.167378,2.728304,780.13,42.30,highres
7.726092,16955760131,0.621135,0.269429,-9.738013,-0.001334,-0.000182,0.000728,0.285337,1.167018,2.733327,780.13,42.30,highres
7.729675,16955770548,0.653575,0.257588,-9.753073,0.000929,-0.000714,-0.000124,0.285337,1.167018,2.733327,780.13,42.30,highres
7.747201,16955780741,0.632111,0.260084,-9.737149,0.000406,0.000344,0.000625,0.285337,1.167018,2.733327,780.13,42.30,highres
7.750630,16955790288,0.641957,0.261550,-9.746237,-0.000761,0.000086,0.000331,0.285337,1.167018,2.733327,780.13,42.30,highres
7.765498,16955805297,0.629131,0.269999,-9.740547,0.000106,0.000538,-0.000511,0.285337,1.167018,2.733327,780.13,42.30,highres
7.773172,16955815715,0.637525,0.274039,-9.750140,-0.000004,0.000363,0.000450,0.285337,1.167018,2.733327,780.13,42.30,highres
7.784713,16955828445,0.631402,0.268570,-9.740045,0.000607,-0.000429,-0.001114,0.285337,1.167018,2.733327,780.14,42.30,highres
7.796977,16955834644,0.639837,0.264443,-9.746433,-0.000004,0.000397,-0.000902,0.285337,1.167018,2.733327,780.14,42.30,highres
7.805765,16955845310,0.633202,0.270625,-9.748210,0.000071,0.000876,-0.000407,0.285337,1.167018,2.733327,780.14,42.30,highres
7.814978,16955850705,0.637020,0.272339,-9.746395,0.000566,0.001287,-0.000639,0.285337,1.167018,2.733327,780.14,42.30,highres
7.824747,16955860804,0.631735,0.270049,-9.739582,0.001524,0.001560,-0.000902,0.285337,1.167018,2.733327,780.14,42.30,highres
7.831865,16955871382,0.636231,0.259769,-9.750422,0.000065,-0.000447,-0.001464,0.285337,1.167018,2.733327,780.14,42.30,highres
7.847742,16955886044,0.630941,0.255250,-9.739191,-0.000210,-0.000298,-0.000705,0.285337,1.167018,2.733327,780.14,42.30,highres
7.849281,16955898612,0.633081,0.257977,-9.747067,-0.000309,-0.000074,-0.000902,0.283523,1.165416,2.725002,780.14,42.30,highres
7.867919,16955903593,0.629519,0.270393,-9.748453,-0.000689,-0.000378,-0.000366,0.285981,1.152844,2.719917,780.14,42.30,highres
7.875148,16955913546,0.637492,0.252089,-9.733842,-0.000467,0.000085,-0.000733,0.285981,1.152844,2.719917,780.14,42.30,highres
7.885848,16955921011,0.635333,0.260552,-9.735312,0.000913,0.000019,-0.000902,0.285981,1.152844,2.719917,780.14,42.30,highres
7.896570,16955932786,0.633903,0.260473,-9.740191,0.000799,0.000512,-0.000457,0.285981,1.152844,2.719917,780.14,42.30,highres
7.907185,16955945446,0.638531,0.264110,-9.748385,0.001715,0.000689,0.000433,0.285981,1.152844,2.719917,780.14,42.30,highres
7.916167,16955950500,0.631685,0.262052,-9.741292,0.001062,0.000396,-0.000299,0.285981,1.152844,2.719917,780.14,42.30,highres
7.925794,16955964490,0.629429,0.274052,-9.740375,-0.000387,0.000035,-0.000100,0.285981,1.152844,2.719917,780.14,42.30,highres
7.930096,16955970563,0.632944,0.270461,-9.753402,0.001428,-0.000642,-0.000597,0.285981,1.152844,2.719917,780.14,42.30,highres
7.948141,16955976174,0.636906,0.273433,-9.750274,0.001524,0.000538,0.000625,0.285981,1.152844,2.719917,780.14,42.30,highres
7.952070,16955993254,0.639332,0.256097,-9.747158,0.001374,0.000403,-0.001215,0.285981,1.152844,2.719917,780.14,42.30,highres
7.965891,16956005877,0.643686,0.270461,-9.746722,0.000507,0.001254,-0.000086,0.285981,1.152844,2.719917,780.14,42.30,highres
7.973973,16956011670,0.632010,0.265268,-9.743132,0.000353,-0.000684,-0.000597,0.285981,1.152844,2.719917,780.14,42.30,highres
7.984707,16956021497,0.636568,0.260205,-9.750282,-0.000301,0.000852,-0.000597,0.285981,1.152844,2.719917,780.14,42.30,highres
7.997483,16956030927,0.633061,0.253851,-9.746051,0.000773,-0.000352,-0.000457,0.275896,1.167072,2.724703,780.14,42.30,highres
8.005363,16956035794,0.636730,0.255601,-9.745299,0.001218,0.000688,-0.000747,0.280079,1.182627,2.738045,780.14,42.30,highres
8.015287,16956047918,0.632143,0.270846,-9.739968,0.000607,0.000969,-0.000002,0.280079,1.182627,2.738045,780.14,42.30,highres
8.025388,16956058173,0.638361,0.259130,-9.741603,0.000765,0.000843,0.000005,0.280079,1.182627,2.738045,780.14,42.30,highres
8.032117,16956068268,0.635754,0.256243,-9.737000,0.001067,0.000538,-0.000448,0.280079,1.182627,2.738045,780.14,42.30,highres
8.045653,16956080831,0.638897,0.270461,-9.739540,0.000641,0.000843,-0.000291,0.280079,1.182627,2.738045,780.14,42.30,highres
8.047423,16956091488,0.643183,0.258668,-9.747580,0.001422,0.000775,0.000489,0.280079,1.182627,2.738045,780.14,42.30,highres
8.065011,16956096255,0.645287,0.269260,-9.748324,0.001784,0.000274,0.000930,0.280079,1.182627,2.738045,780.14,42.30,highres
8.076839,16956108648,0.584872,0.294030,-9.747095,0.000913,0.001363,-0.000332,0.280079,1.182627,2.738045,780.14,42.30,highres
8.087288,16956119049,0.669524,0.244480,-9.739801,0.002281,0.000990,-0.001006,0.280079,1.182627,2.738045,780.14,42.30,highres
8.097356,16956126564,0.713487,0.243381,-9.741894,0.002328,0.001311,-0.001223,0.280079,1.182627,2.738045,780.14,42.30,highres
8.106739,16956139020,0.675796,0.199744,-9.763863,0.001118,0.000366,0.000836,0.280079,1.182627,2.738045,780.14,42.30,highres
8.115665,16956148060,0.673612,0.246520,-9.720388,-0.004711,-0.000502,0.000565,0.280079,1.182627,2.738045,780.14,42.30,highres
8.126062,16956161587,0.638897,0.259688,-9.780241,0.005311,0.001769,-0.000387,0.280079,1.182627,2.738045,780.14,42.30,highres
8.130109,16956173071,0.618050,0.254716,-9.710373,-0.002964,0.001323,0.001189,0.281377,1.166439,2.732047,780.14,42.30,highres
8.146845,16956178571,0.639744,0.274316,-9.681340,0.002794,0.001957,-0.000597,0.281377,1.166439,2.732047,780.14,42.30,highres
8.150638,16956190791,0.631715,0.252505,-9.763482,0.002134,-0.000378,-0.001513,0.264071,1.173853,2.727799,780.14,42.30,highres
8.166261,16956200779,0.641787,0.259232,-9.729819,-0.001382,0.000692,-0.000446,0.264071,1.173853,2.727799,780.14,42.30,highres
8.174437,16956213909,0.629850,0.272939,-9.753655,0.000642,0.000473,-0.000562,0.264071,1.173853,2.727799,780.14,42.30,highres
8.185993,16956224638,0.617529,0.261038,-9.742751,-0.001130,-0.000401,-0.000173,0.264071,1.173853,2.727799,780.14,42.30,highres
8.192094,16956231384,0.645337,0.257844,-9.724531,0.000966,0.000232,-0.000438,0.264071,1.173853,2.727799,780.14,42.30,highres
8.206202,16956241722,0.623336,0.263279,-9.745526,-0.000309,0.000538,0.000014,0.264071,1.173853,2.727799,780.14,42.30,highres
8.216206,16956253664,0.633778,0.260233,-9.752281,-0.000726,0.001230,0.000014,0.264071,1.173853,2.727799,780.14,42.30,highres
8.224267,16956266274,0.633152,0.263515,-9.731882,0.000485,0.000782,0.000319,0.264071,1.173853,2.727799,780.14,42.30,highres
8.231071,16956276084,0.644036,0.268140,-9.748841,-0.000786,0.000004,0.000835,0.264071,1.173853,2.727799,780.14,42.30,highres
8.246685,16956280572,0.632118,0.260890,-9.732762,-0.000004,0.000538,0.000014,0.264071,1.173853,2.727799,780.14,42.30,highres
8.248301,16956286078,0.634838,0.266044,-9.740119,0.000302,0.000538,-0.001513,0.264071,1.173853,2.727799,780.14,42.30,highres
8.265726,16956300588,0.641291,0.251308,-9.745527,-0.000920,0.001454,0.000319,0.264071,1.173853,2.727799,780.14,42.30,highres
8.274753,16956310601,0.618622,0.265162,-9.715048,-0.000554,0.000090,0.000197,0.264071,1.173853,2.727799,780.14,42.30,highres
8.274753,16956318446,0.662838,0.242929,-9.751512,-0.000965,0.001243,0.000014,0.276765,1.168060,2.729195,780.14,42.30,highres
8.274753,16956329497,0.626010,0.246087,-9.719750,-0.004128,-0.000968,-0.000422,0.276242,1.171418,2.722353,780.14,42.30,highres
8.274753,16956336077,0.661847,0.274740,-9.745953,-0.000192,0.000317,-0.000285,0.276242,1.171418,2.722353,780.14,42.30,highres
8.316799,16956342532,0.632526,0.267365,-9.742953,-0.000404,0.000843,-0.001538,0.276242,1.171418,2.722353,780.14,42.30,highres
8.325897,16956355988,0.641962,0.273812,-9.767744,0.001244,0.000379,-0.000304,0.276242,1.171418,2.722353,780.14,42.30,highres
8.329533,16956366893,0.636078,0.265326,-9.726890,-0.000309,0.000538,-0.000291,0.276242,1.171418,2.722353,780.14,42.30,highres
8.344771,16956378563,0.623336,0.251399,-9.758719,-0.000174,-0.001405,-0.000792,0.276242,1.171418,2.722353,780.13,42.30,highres
8.351302,16956383973,0.633046,0.274436,-9.750948,0.000477,0.000072,-0.001353,0.276242,1.171418,2.722353,780.13,42.30,highres
8.365415,16956398566,0.636503,0.253702,-9.745526,-0.000856,-0.000314,0.000383,0.276242,1.171418,2.722353,780.13,42.30,highres
8.373795,16956406427,0.648474,0.284220,-9.751927,0.000628,-0.001031,-0.000781,0.276242,1.171418,2.722353,780.13,42.30,highres
8.385960,16956425912,0.637700,0.271658,-9.737147,0.000007,-0.000378,-0.000597,0.276242,1.171418,2.722353,780.13,42.30,highres
8.395842,16956431365,0.645543,0.248897,-9.739559,0.002093,-0.001163,-0.000118,0.276242,1.171418,2.722353,780.13,42.30,highres
8.406914,16956445669,0.633352,0.260450,-9.742805,-0.000004,0.001087,-0.000842,0.276242,1.171418,2.722353,780.13,42.30,highres
8.415903,16956454582,0.630933,0.254502,-9.749516,0.000200,-0.000378,-0.000902,0.276242,1.171418,2.722353,780.13,42.30,highres
8.425729,16956464293,0.635306,0.264476,-9.732358,-0.000309,0.000538,0.000014,0.279256,1.162374,2.733251,780.14,42.30,highres
8.431192,16956468406,0.639094,0.259475,-9.735415,0.001128,0.001948,-0.001468,0.277871,1.169618,2.747511,780.14,42.30,highres
8.447384,16956484347,0.640604,0.266799,-9.739504,0.000145,0.001158,-0.000282,0.277871,1.169618,2.747511,780.14,42.30,highres
8.449247,16956493747,0.640094,0.264476,-9.752707,-0.001159,-0.001037,-0.000416,0.277871,1.169618,2.747511,780.14,42.30,highres
8.467153,16956504886,0.634051,0.269048,-9.730571,0.000154,0.000689,-0.000137,0.277871,1.169618,2.747511,780.14,42.30,highres
8.473657,16956514588,0.641518,0.272053,-9.745131,-0.000016,-0.000561,-0.001220,0.277871,1.169618,2.747511,780.14,42.30,highres
8.485093,16956524520,0.635211,0.266761,-9.727541,0.000913,0.001489,-0.000981,0.277871,1.169618,2.747511,780.14,42.30,highres
8.498013,16956528441,0.629665,0.294727,-9.744390,0.000294,-0.000077,-0.000438,0.277871,1.169618,2.747511,780.14,42.30,highres
8.506949,16956541192,0.638073,0.261336,-9.749503,0.001091,0.000360,-0.001411,0.277871,1.169618,2.747511,780.14,42.30,highres
8.515546,16956551480,0.634314,0.256680,-9.750692,0.000302,-0.000711,-0.001041,0.277871,1.169618,2.747511,780.14,42.30,highres
8.525953,16956566464,0.622936,0.264470,-9.751510,0.000099,0.001044,-0.001411,0.277871,1.169618,2.747511,780.14,42.30,highres
8.533817,16956571617,0.626927,0.271331,-9.749170,0.000302,-0.000073,-0.000292,0.277871,1.169618,2.747511,780.14,42.30,highres
8.546698,16956580994,0.642652,0.269391,-9.743747,0.000607,0.000564,-0.000597,0.277871,1.169618,2.747511,780.14,42.30,highres
8.550218,16956591002,0.651213,0.254048,-9.742478,-0.000176,0.000326,-0.000597,0.277871,1.169618,2.747511,780.14,42.30,highres
8.566354,16956596045,0.647170,0.282337,-9.747826,0.001602,0.001062,-0.000440,0.278324,1.163229,2.729155,780.14,42.30,highres
8.576620,16956606104,0.633681,0.266530,-9.738905,-0.000336,-0.000405,-0.000056,0.280003,1.153880,2.738560,780.14,42.30,highres
8.584212,16956613475,0.647629,0.263236,-9.747745,0.000419,0.000327,-0.000997,0.280003,1.153880,2.738560,780.14,42.30,highres
8.597283,16956631594,0.626606,0.257348,-9.754670,-0.000082,0.000229,0.000044,0.280003,1.153880,2.738560,780.14,42.30,highres
8.607103,16956641643,0.633789,0.252560,-9.746291,-0.001431,-0.000520,-0.000772,0.280003,1.153880,2.738560,780.14,42.30,highres
8.616381,16956646053,0.631395,0.258546,-9.745094,-0.000653,-0.000076,-0.001522,0.280003,1.153880,2.738560,780.14,42.30,highres
8.626198,16956653694,0.641417,0.266018,-9.736976,-0.000653,0.000229,0.000142,0.280003,1.153880,2.738560,780.14,42.30,highres
8.632373,16956666141,0.635350,0.264167,-9.749474,0.001262,0.000970,-0.000911,0.280003,1.153880,2.738560,780.14,42.30,highres
8.646350,16956678666,0.639246,0.278754,-9.728194,-0.000266,-0.000548,0.001060,0.280003,1.153880,2.738560,780.14,42.30,highres
8.647903,16956688719,0.638577,0.259743,-9.740306,0.001737,0.001092,-0.000300,0.280003,1.153880,2.738560,780.14,42.30,highres
8.665740,16956693509,0.640296,0.261768,-9.743948,-0.000348,-0.000992,-0.000606,0.280003,1.153880,2.738560,780.13,41.70,highres
8.676294,16956706648,0.630887,0.261121,-9.727792,0.000027,0.000722,-0.000606,0.280003,1.153880,2.738560,780.13,41.70,highres
8.685672,16956721891,0.642168,0.266925,-9.748684,-0.000463,-0.000098,-0.001287,0.280003,1.153880,2.738560,780.13,41.70,highres
8.695548,16956732149,0.635164,0.256512,-9.737014,-0.000348,0.000504,-0.000300,0.280003,1.153880,2.738560,780.13,41.70,highres
8.705798,16956744351,0.630043,0.267373,-9.740011,-0.000768,-0.000381,0.000082,0.278843,1.164263,2.727262,780.13,41.70,highres
8.714996,16956754421,0.649482,0.266260,-9.738845,0.000424,0.000390,-0.000011,0.276318,1.171291,2.733498,780.13,41.70,highres
8.725670,16956759044,0.634204,0.274953,-9.742141,-0.000653,0.000535,-0.001217,0.276318,1.171291,2.733498,780.13,41.70,highres
8.729731,16956764111,0.625031,0.265288,-9.749063,-0.000348,0.000229,-0.000911,0.276318,1.171291,2.733498,780.13,41.70,highres
8.745169,16956783090,0.640971,0.259177,-9.733745,0.000112,-0.000225,0.000306,0.276318,1.171291,2.733498,780.13,41.70,highres
8.751235,16956791733,0.629183,0.267945,-9.752371,-0.000653,-0.000499,-0.000465,0.276318,1.171291,2.733498,780.13,41.70,highres
8.765112,16956796109,0.639599,0.252716,-9.744588,0.000220,0.000665,-0.001740,0.276318,1.171291,2.733498,780.13,41.70,highres
8.774838,16956812647,0.624405,0.262088,-9.745191,0.000568,-0.000687,0.000005,0.276318,1.171291,2.733498,780.13,41.70,highres
8.785792,16956816590,0.641624,0.259634,-9.743244,-0.000042,-0.000076,-0.000300,0.276318,1.171291,2.733498,780.13,41.70,highres
8.796839,16956829103,0.642983,0.265074,-9.732281,0.000263,0.000535,-0.000465,0.276318,1.171291,2.733498,780.13,41.70,highres
8.807472,16956836523,0.647514,0.269678,-9.747289,0.001012,-0.000145,-0.001335,0.276318,1.171291,2.733498,780.13,41.70,highres
8.817378,16956846506,0.626606,0.272639,-9.745274,0.000122,0.000417,-0.000957,0.276318,1.171291,2.733498,780.13,41.70,highres
8.824996,16956859000,0.647142,0.269381,-9.739368,0.000339,0.000306,-0.000479,0.276318,1.171291,2.733498,780.14,41.70,highres
8.830293,16956865081,0.629947,0.271491,-9.752987,-0.000187,0.000728,-0.000590,0.276318,1.171291,2.733498,780.14,41.70,highres
8.847474,16956875730,0.632592,0.253584,-9.740132,-0.000348,0.002062,-0.000911,0.275526,1.163772,2.732004,780.14,41.70,highres
8.855338,16956885627,0.629000,0.252560,-9.747488,-0.000042,-0.000687,-0.001217,0.268712,1.174127,2.726985,780.14,41.70,highres
8.858746,16956889146,0.636015,0.255268,-9.741048,-0.000298,-0.000076,-0.000165,0.268712,1.174127,2.726985,780.14,41.70,highres
8.876387,16956902248,0.629909,0.270805,-9.745738,-0.000305,-0.000687,-0.000838,0.268712,1.174127,2.726985,780.14,41.70,highres
8.884700,16956906452,0.625409,0.270516,-9.752276,0.000086,-0.000140,0.000488,0.268712,1.174127,2.726985,780.14,41.70,highres
8.896197,16956911826,0.628150,0.262562,-9.756293,0.000709,0.000675,-0.001052,0.268712,1.174127,2.726985,780.14,41.70,highres
8.906902,16956932260,0.636998,0.268267,-9.748204,-0.000959,0.000141,-0.001197,0.268712,1.174127,2.726985,780.13,41.70,highres
8.914604,16956936202,0.623100,0.263954,-9.752811,0.000274,0.000556,-0.000890,0.268712,1.174127,2.726985,780.13,41.70,highres
8.925144,16956955979,0.638577,0.272910,-9.735518,-0.000042,0.000535,-0.000664,0.268712,1.174127,2.726985,780.13,41.70,highres
8.930169,16956961699,0.632650,0.273154,-9.746119,0.000830,0.001408,-0.000300,0.268712,1.174127,2.726985,780.13,41.70,highres
8.947045,16956973635,0.645759,0.266925,-9.740306,0.000569,0.001451,-0.000496,0.268712,1.174127,2.726985,780.13,41.70,highres
8.950329,16956984551,0.633001,0.268784,-9.738291,-0.000653,0.000535,-0.002438,0.268712,1.174127,2.726985,780.13,41.70,highres
8.966243,16957005177,0.635523,0.275609,-9.749687,0.000367,0.000581,-0.001093,0.268712,1.174127,2.726985,780.13,41.70,highres
8.974902,16957016414,0.641635,0.275968,-9.750142,0.001040,0.000229,-0.000134,0.268712,1.174127,2.726985,780.13,41.70,highres
8.985849,16957022573,0.639284,0.269536,-9.738129,0.000688,0.000840,-0.000300,0.283375,1.164648,2.726962,780.13,41.70,highres
8.997018,16957034463,0.633947,0.278708,-9.736714,0.000745,0.000229,-0.000212,0.274994,1.148966,2.724912,780.13,41.70,highres
9.007618,16957044906,0.652201,0.271286,-9.745864,0.000234,-0.000687,0.000114,0.274994,1.148966,2.724912,780.13,41.70,highres
9.016998,16957050354,0.626110,0.262847,-9.740296,0.000664,-0.000667,0.000195,0.274994,1.148966,2.724912,780.13,41.70,highres
9.025973,16957065099,0.640474,0.266544,-9.752072,0.001169,0.000103,0.000015,0.274994,1.148966,2.724912,780.13,41.70,highres
9.030179,16957069860,0.633977,0.271385,-9.747324,0.000700,0.000535,-0.000169,0.274994,1.148966,2.724912,780.13,41.70,highres
9.047230,16957082745,0.639382,0.262942,-9.741482,0.000546,0.000426,-0.000278,0.274994,1.148966,2.724912,780.13,41.70,highres
9.048939,16957091869,0.638577,0.269319,-9.740306,0.000569,0.000229,-0.000606,0.274994,1.148966,2.724912,780.13,41.70,highres
9.065922,16957102266,0.640953,0.282522,-9.753420,0.000239,-0.000216,0.000030,0.274994,1.148966,2.724912,780.13,41.70,highres
9.073841,16957116487,0.640971,0.253757,-9.741470,0.000874,-0.000317,0.000005,0.274994,1.148966,2.724912,780.13,41.70,highres
9.085759,16957125038,0.635106,0.262925,-9.734609,-0.000274,0.000144,0.000500,0.274994,1.148966,2.724912,780.13,41.70,highres
9.095909,16957129309,0.630365,0.268636,-9.740809,0.000306,0.000273,-0.000169,0.274994,1.148966,2.724912,780.13,41.70,highres
9.104538,16957142611,0.633789,0.259730,-9.736558,0.001179,0.000275,0.000748,0.274994,1.148966,2.724912,780.13,41.70,highres
9.116108,16957152480,0.634934,0.259972,-9.751766,0.000568,0.001017,0.000252,0.274994,1.148966,2.724912,780.13,41.70,highres
9.124484,16957162449,0.645621,0.256854,-9.734040,-0.000258,0.000859,-0.000319,0.280122,1.161225,2.730722,780.13,41.70,highres
9.129389,16957172368,0.638543,0.262977,-9.754347,0.000874,-0.000524,-0.001054,0.271980,1.150403,2.723908,780.13,41.70,highres
9.145583,16957183244,0.640971,0.266925,-9.748684,-0.000005,0.000153,-0.000797,0.271980,1.150403,2.723908,780.14,41.70,highres
9.150368,16957193405,0.631895,0.255455,-9.742896,0.001386,0.001153,-0.000705,0.271980,1.150403,2.723908,780.14,41.70,highres
9.165853,16957205399,0.640015,0.266093,-9.729774,0.000660,0.000292,-0.000422,0.271980,1.150403,2.723908,780.14,41.70,highres
9.173611,16957212540,0.630943,0.265707,-9.740873,0.000143,-0.000501,-0.000726,0.271980,1.150403,2.723908,780.14,41.70,highres
9.185061,16957222444,0.634348,0.258533,-9.738706,0.000437,0.000840,0.000005,0.271980,1.150403,2.723908,780.14,41.70,highres
9.195958,16957229420,0.640863,0.271364,-9.745376,0.000568,0.000229,0.000310,0.271980,1.150403,2.723908,780.14,41.70,highres
9.207246,16957243072,0.640616,0.263656,-9.743864,0.000945,0.000418,0.000005,0.271980,1.150403,2.723908,780.14,41.70,highres
9.215964,16957252532,0.627803,0.277698,-9.740306,-0.000042,0.001146,-0.000300,0.271980,1.150403,2.723908,780.14,41.70,highres
9.225740,16957262180,0.646276,0.271746,-9.740404,0.001625,0.000518,-0.001522,0.271980,1.150403,2.723908,780.14,41.70,highres
9.229966,16957274886,0.634375,0.262137,-9.734639,0.000477,0.000840,-0.000606,0.271980,1.150403,2.723908,780.14,41.70,highres
9.246683,16957283164,0.640971,0.268122,-9.751080,0.000263,0.000535,0.000005,0.271980,1.150403,2.723908,780.14,41.70,highres
9.249130,16957294575,0.635216,0.276939,-9.740721,0.000852,0.000644,-0.000802,0.271980,1.150403,2.723908,780.14,41.70,highres
9.266151,16957299366,0.642832,0.259883,-9.737770,0.000194,-0.000245,-0.000809,0.282319,1.168193,2.733664,780.14,41.70,highres
9.273809,16957315935,0.635668,0.266198,-9.739624,0.000679,-0.000271,-0.000300,0.286532,1.189560,2.722809,780.14,41.70,highres
9.273809,16957324328,0.621770,0.273677,-9.742652,-0.000116,0.000694,-0.000068,0.286532,1.189560,2.722809,780.14,41.70,highres
9.273809,16957337455,0.639198,0.276834,-9.744231,-0.000959,0.000783,-0.001225,0.286532,1.189560,2.722809,780.14,41.70,highres
9.273809,16957342246,0.630369,0.269148,-9.750736,-0.000213,0.000388,-0.000289,0.286532,1.189560,2.722809,780.12,41.70,highres
9.316627,16957352561,0.634986,0.257349,-9.747488,0.000874,0.001451,-0.000300,0.286532,1.189560,2.722809,780.12,41.70,highres
9.325016,16957362088,0.645863,0.260963,-9.743083,0.001179,0.001146,-0.000469,0.286532,1.189560,2.722809,780.12,41.70,highres
9.329638,16957372544,0.638577,0.276501,-9.751080,-0.000042,0.001146,-0.000300,0.286532,1.189560,2.722809,780.12,41.70,highres
9.348640,16957385244,0.635808,0.273430,-9.741794,0.001275,0.001451,-0.001026,0.286532,1.189560,2.722809,780.12,41.70,highres
9.350494,16957395192,0.630374,0.255818,-9.751923,0.000783,-0.000596,-0.001041,0.286532,1.189560,2.722809,780.12,41.70,highres
9.366397,16957405296,0.638600,0.274665,-9.744490,0.000109,-0.000076,-0.000760,0.286532,1.189560,2.722809,780.12,41.70,highres
9.375150,16957409522,0.630801,0.269517,-9.737213,0.001230,-0.000865,-0.000377,0.286532,1.189560,2.722809,780.12,41.70,highres
9.384487,16957420250,0.640971,0.259152,-9.739108,0.000112,-0.000076,-0.001062,0.286532,1.189560,2.722809,780.12,41.70,highres
9.396949,16957434020,0.639774,0.258546,-9.743896,0.000263,0.001146,-0.000606,0.286532,1.189560,2.722809,780.12,41.70,highres
9.406591,16957444757,0.633658,0.274500,-9.744962,-0.000511,0.000351,0.000636,0.279586,1.166073,2.733578,780.12,41.70,highres
9.418410,16957454702,0.640774,0.260236,-9.750727,0.001676,0.000420,0.000145,0.290421,1.175315,2.731144,780.12,41.70,highres
9.425602,16957464361,0.642739,0.267663,-9.732442,0.000414,0.000988,-0.000753,0.290421,1.175315,2.731144,780.12,41.70,highres
9.436278,16957475223,0.626288,0.270502,-9.733125,0.000735,-0.000161,-0.000718,0.290421,1.175315,2.731144,780.12,41.70,highres
9.445452,16957479460,0.643358,0.265124,-9.748066,0.000263,-0.000360,-0.002028,0.290421,1.175315,2.731144,780.12,41.70,highres
9.447332,16957489606,0.642225,0.266812,-9.743496,0.000449,0.001146,-0.001895,0.290421,1.175315,2.731144,780.12,41.70,highres
9.466230,16957499328,0.637380,0.257536,-9.745786,0.000929,0.001521,0.000741,0.290421,1.175315,2.731144,780.12,41.70,highres
9.473502,16957509515,0.648447,0.274107,-9.745996,0.000874,-0.000076,0.000005,0.290421,1.175315,2.731144,780.12,41.70,highres
9.484928,16957519419,0.633789,0.263334,-9.735518,0.000746,-0.000432,-0.000478,0.290421,1.175315,2.731144,780.12,41.70,highres
9.491627,16957524673,0.636418,0.257708,-9.742700,0.000874,0.000229,-0.000606,0.290421,1.175315,2.731144,780.12,41.70,highres
