t_wall_s,t_boot_us,ax,ay,az,gx,gy,gz,mx,my,mz,abs_pressure,temperature,source
134.418001,9915972175,0.630120,0.017299,-9.729328,-0.001038,0.000923,-0.001114,0.332935,1.202824,2.634531,778.91,15.00,highres
134.418001,9915985425,0.632357,0.001493,-9.732562,0.000209,0.001122,0.000108,0.332935,1.202824,2.634531,778.91,15.00,highres
134.418001,9915992587,0.642579,0.011069,-9.740580,-0.000395,0.000371,-0.000840,0.332935,1.202824,2.634531,778.91,15.00,highres
134.418001,9916002669,0.637089,0.012514,-9.733082,0.000795,0.001287,-0.000809,0.332935,1.202824,2.634531,778.91,15.00,highres
134.418001,9916008108,0.637791,0.018251,-9.746565,-0.000420,0.000680,-0.000507,0.332935,1.202824,2.634531,778.91,15.00,highres
134.418001,9916019327,0.647278,0.012266,-9.745367,-0.000041,0.000084,-0.000970,0.332935,1.202824,2.634531,778.91,15.00,highres
134.418001,9916029830,0.642302,0.003056,-9.732199,-0.000669,0.001224,-0.000440,0.332935,1.202824,2.634531,778.91,15.00,highres
134.418162,9916036010,0.631791,0.005901,-9.731403,-0.000122,0.000546,-0.001202,0.332935,1.202824,2.634531,778.91,15.00,highres
134.418162,9916048623,0.635905,0.010216,-9.745367,0.000796,0.001288,-0.000504,0.332935,1.202824,2.634531,778.91,15.00,highres
134.418162,9916059800,0.635437,0.004720,-9.733118,-0.000012,0.001015,0.001030,0.332935,1.202824,2.634531,778.91,15.00,highres
134.418162,9916065402,0.630210,0.009124,-9.728395,0.000162,0.000532,0.000542,0.324455,1.199509,2.626477,778.91,15.00,highres
134.459790,9916075891,0.634797,0.012905,-9.730338,0.000182,0.001015,-0.000206,0.324455,1.199509,2.626477,778.91,15.00,highres
134.462182,9916080340,0.636517,0.011066,-9.731506,-0.000454,-0.000233,-0.001122,0.320525,1.203030,2.624784,778.91,15.00,highres
134.478443,9916090609,0.640275,0.000511,-9.730962,0.000631,0.000366,-0.001142,0.320525,1.203030,2.624784,778.91,15.00,highres
134.482873,9916095486,0.649031,0.003266,-9.736293,0.000182,0.001626,-0.000206,0.320525,1.203030,2.624784,778.91,15.00,highres
134.497500,9916110175,0.639965,0.014066,-9.739884,-0.000734,0.002542,-0.001122,0.320525,1.203030,2.624784,778.91,15.00,highres
134.499077,9916120631,0.641507,0.003345,-9.735553,0.001847,0.000828,-0.000206,0.320525,1.203030,2.624784,778.91,15.00,highres
134.517853,9916129441,0.629258,0.003807,-9.744265,0.000189,0.000128,-0.000856,0.320525,1.203030,2.624784,778.91,15.00,highres
134.523263,9916150780,0.640074,-0.001040,-9.727812,-0.000398,0.001070,-0.000284,0.320525,1.203030,2.624784,778.91,15.00,highres
134.537266,9916162639,0.642591,0.010489,-9.722060,-0.000734,0.000557,-0.000817,0.320525,1.203030,2.624784,778.91,15.00,highres
134.547627,9916175036,0.640536,-0.000363,-9.725404,-0.000210,-0.000759,-0.000039,0.320525,1.203030,2.624784,778.91,15.00,highres
134.558328,9916183077,0.642083,0.006816,-9.739645,0.000045,-0.000879,0.000848,0.320525,1.203030,2.624784,778.91,15.00,highres
134.559693,9916193535,0.636517,0.012066,-9.728608,-0.000912,0.000404,0.001016,0.320525,1.203030,2.624784,778.91,15.00,highres
134.577509,9916198069,0.643466,0.001752,-9.733883,-0.000611,0.000833,0.000465,0.322864,1.199853,2.634746,778.91,15.00,highres
134.583329,9916203454,0.626941,0.000209,-9.738811,0.000488,0.001015,-0.000511,0.322864,1.199853,2.634746,778.91,15.00,highres
134.598017,9916219118,0.635499,0.004240,-9.731791,-0.000734,0.000953,-0.001795,0.315381,1.192203,2.638045,778.91,15.00,highres
134.599757,9916235295,0.641917,-0.000361,-9.746391,0.000018,0.000143,-0.000580,0.315381,1.192203,2.638045,778.91,15.00,highres
134.614071,9916240315,0.639083,0.005593,-9.731848,-0.000555,-0.000979,-0.000062,0.315381,1.192203,2.638045,778.91,15.00,highres
134.623469,9916250721,0.642416,0.012497,-9.740057,-0.000428,0.001321,-0.000206,0.315381,1.192203,2.638045,778.91,15.00,highres
134.637593,9916260239,0.647152,-0.000905,-9.738424,0.000970,0.000839,0.001193,0.315381,1.192203,2.638045,778.91,15.00,highres
134.646879,9916272926,0.645795,-0.000904,-9.735845,0.000112,0.000404,-0.000441,0.315381,1.192203,2.638045,778.91,15.00,highres
134.658067,9916285439,0.648908,0.004552,-9.732700,0.000441,0.001005,0.000754,0.315381,1.192203,2.638045,778.91,15.00,highres
134.659707,9916290104,0.655670,0.002552,-9.737891,-0.000123,-0.000695,0.001016,0.315381,1.192203,2.638045,778.91,15.00,highres
134.677570,9916303374,0.641305,0.005080,-9.733897,-0.000111,-0.000406,-0.000406,0.315381,1.192203,2.638045,778.91,15.00,highres
134.683107,9916309524,0.635957,0.006980,-9.733547,-0.000428,0.001505,-0.001001,0.315381,1.192203,2.638045,778.91,15.00,highres
134.690486,9916322839,0.638507,0.001489,-9.729907,-0.000734,0.000059,-0.000688,0.315381,1.192203,2.638045,778.91,15.00,highres
134.703712,9916334126,0.637375,0.012131,-9.732699,-0.000847,0.000763,0.000100,0.315381,1.192203,2.638045,778.91,15.00,highres
134.717725,9916340234,0.639737,0.013171,-9.737490,0.000886,0.001391,-0.000064,0.315381,1.192203,2.638045,778.91,15.00,highres
134.723081,9916350239,0.633371,0.012263,-9.728635,-0.000106,0.001733,-0.000709,0.319930,1.201984,2.632456,778.91,15.00,highres
134.737836,9916363448,0.633455,0.000960,-9.734958,-0.000011,0.000822,-0.000542,0.335948,1.203142,2.622047,778.91,15.00,highres
134.748245,9916372594,0.636097,-0.004733,-9.733057,-0.000261,0.000710,-0.000176,0.335948,1.203142,2.622047,778.91,15.00,highres
134.759215,9916385957,0.641305,0.005080,-9.723125,0.000241,-0.000512,0.000546,0.335948,1.203142,2.622047,778.91,15.00,highres
134.761314,9916393784,0.648833,0.007597,-9.732195,0.000045,-0.000451,0.000237,0.335948,1.203142,2.622047,778.91,15.00,highres
134.777362,9916406059,0.643887,0.004258,-9.739825,-0.000538,0.001015,0.000111,0.335948,1.203142,2.622047,778.91,15.00,highres
134.786544,9916412593,0.644685,0.009974,-9.729108,-0.000150,0.000404,-0.000290,0.335948,1.203142,2.622047,778.91,15.00,highres
134.797961,9916425929,0.635449,0.005417,-9.735361,0.000488,0.001134,-0.000393,0.335948,1.203142,2.622047,778.91,15.00,highres
134.799734,9916430444,0.643808,-0.001014,-9.737597,0.000280,0.001845,0.000601,0.335948,1.203142,2.622047,778.91,15.00,highres
134.817098,9916440374,0.634803,-0.000388,-9.730824,-0.000428,0.000595,-0.000626,0.335948,1.203142,2.622047,778.91,15.00,highres
134.823134,9916455883,0.638911,0.003883,-9.745870,-0.000890,0.000866,-0.000362,0.335948,1.203142,2.622047,778.91,15.00,highres
134.837918,9916460251,0.644966,0.000934,-9.741602,-0.000306,0.000893,-0.001184,0.335948,1.203142,2.622047,778.91,15.00,highres
134.846811,9916472670,0.659032,0.007474,-9.725945,0.000265,0.000153,0.000100,0.335948,1.203142,2.622047,778.91,15.00,highres
134.857515,9916483229,0.627082,-0.002912,-9.733898,0.000865,0.000575,0.000441,0.335948,1.203142,2.622047,778.91,15.00,highres
134.859463,9916492858,0.634094,0.008292,-9.729052,-0.000019,0.000315,-0.000929,0.319361,1.200224,2.633226,778.91,15.00,highres
134.877945,9916506058,0.653235,0.009465,-9.734718,-0.000905,0.000501,-0.001122,0.314044,1.193513,2.655874,778.91,15.00,highres
134.882182,9916511472,0.630391,0.000982,-9.729616,0.000338,0.000249,-0.000511,0.314044,1.193513,2.655874,778.91,15.00,highres
134.897414,9916523593,0.643611,0.002500,-9.722300,-0.000851,0.000827,0.000029,0.314044,1.193513,2.655874,778.91,15.00,highres
134.899088,9916533338,0.650830,0.017885,-9.738272,-0.000654,0.001307,0.000166,0.314044,1.193513,2.655874,778.91,15.00,highres
134.916036,9916538569,0.649403,0.016487,-9.730659,0.000182,0.001015,0.000405,0.314044,1.193513,2.655874,778.91,15.00,highres
134.923955,9916550522,0.639842,0.000381,-9.731327,0.000842,0.000887,0.000011,0.314044,1.193513,2.655874,778.91,15.00,highres
134.936649,9916563174,0.641305,0.006277,-9.743475,-0.000128,0.001481,0.000405,0.314044,1.193513,2.655874,778.91,15.00,highres
134.948774,9916570519,0.643322,0.003666,-9.737601,0.000290,0.000297,-0.000296,0.314044,1.193513,2.655874,778.91,15.00,highres
134.957722,9916581225,0.644923,0.009303,-9.747078,-0.001033,0.001015,-0.000357,0.314044,1.193513,2.655874,778.91,15.00,highres
134.960510,9916591026,0.643598,0.007143,-9.738024,-0.000259,-0.000155,-0.001207,0.314044,1.193513,2.655874,778.91,15.00,highres
134.979050,9916606377,0.636546,0.015158,-9.724573,0.000381,0.000326,-0.000526,0.314044,1.193513,2.655874,778.91,15.00,highres
134.983843,9916611373,0.644897,0.009869,-9.738686,0.000182,-0.000512,0.000100,0.314044,1.193513,2.655874,778.91,15.00,highres
134.997926,9916621046,0.631734,0.007488,-9.731915,0.000081,0.000609,-0.001122,0.314044,1.193513,2.655874,778.91,15.00,highres
134.999653,9916630622,0.631729,0.013460,-9.730307,-0.000428,0.001321,0.000100,0.326354,1.205126,2.626158,778.91,15.00,highres
135.018256,9916645858,0.642544,-0.003918,-9.727996,-0.000487,0.000957,-0.000628,0.313515,1.185635,2.644506,778.91,15.00,highres
135.023162,9916650746,0.644164,-0.002151,-9.730308,-0.001345,0.001015,-0.000511,0.313515,1.185635,2.644506,778.91,15.00,highres
135.038187,9916663691,0.635320,-0.002102,-9.735147,0.001279,-0.000568,-0.001010,0.313515,1.185635,2.644506,778.91,15.00,highres
135.047905,9916670672,0.640108,0.002686,-9.732926,0.001099,0.000611,-0.000618,0.313515,1.185635,2.644506,778.91,15.00,highres
135.057548,9916680810,0.641525,0.011829,-9.733793,0.000069,0.000552,0.000020,0.313515,1.185635,2.644506,778.91,15.00,highres
135.059403,9916693262,0.637915,0.002421,-9.745136,-0.000480,0.000234,-0.001055,0.313515,1.185635,2.644506,778.91,15.00,highres
135.078815,9916706446,0.644240,0.000408,-9.733318,0.001099,0.000240,-0.000090,0.313515,1.185635,2.644506,778.91,15.00,highres
135.082218,9916711787,0.643142,0.008438,-9.738605,0.000162,0.000120,-0.000022,0.313515,1.185635,2.644506,778.91,15.00,highres
135.090068,9916718210,0.649445,0.007715,-9.730260,0.000268,0.000246,-0.001440,0.313515,1.185635,2.644506,778.91,15.00,highres
135.101658,9916729264,0.638399,0.009271,-9.734754,-0.000319,0.000797,0.000100,0.313515,1.185635,2.644506,778.91,15.00,highres
135.117216,9916742403,0.640108,0.018248,-9.741081,0.000020,0.000690,0.000038,0.313515,1.185635,2.644506,778.91,15.00,highres
135.122516,9916750927,0.639789,0.013460,-9.742915,-0.000021,0.000813,-0.000714,0.313515,1.185635,2.644506,778.91,15.00,highres
135.138910,9916758443,0.638423,0.005522,-9.735048,-0.000983,-0.000142,-0.000326,0.313515,1.185635,2.644506,778.91,15.00,highres
135.140199,9916769737,0.637714,0.005080,-9.732700,-0.001650,-0.000207,-0.000511,0.322545,1.206315,2.631910,778.91,15.00,highres
135.157240,9916782934,0.646105,0.006277,-9.730307,0.000182,-0.000322,-0.001428,0.315381,1.192203,2.638045,778.91,15.00,highres
135.159280,9916791614,0.643760,0.005295,-9.733192,-0.000123,0.000528,-0.000329,0.315381,1.192203,2.638045,778.91,15.00,highres
135.178405,9916795828,0.639454,0.003773,-9.730527,0.000290,0.001420,-0.001634,0.315381,1.192203,2.638045,778.92,15.00,highres
135.182154,9916806154,0.636517,-0.004496,-9.736292,0.000182,-0.000207,-0.000511,0.315381,1.192203,2.638045,778.92,15.00,highres
135.197854,9916821124,0.626440,0.006277,-9.731938,0.000488,0.000054,-0.000206,0.315381,1.192203,2.638045,778.92,15.00,highres
135.199618,9916830526,0.644466,0.004219,-9.730064,0.000279,-0.000013,0.000003,0.315381,1.192203,2.638045,778.92,15.00,highres
135.216736,9916843197,0.649088,0.007673,-9.736693,0.000182,0.000710,0.000100,0.315381,1.192203,2.638045,778.92,15.00,highres
135.222984,9916848662,0.642502,0.003883,-9.745869,0.000182,0.002237,-0.000206,0.315381,1.192203,2.638045,778.92,15.00,highres
135.237257,9916860849,0.634123,0.004178,-9.735075,0.000793,0.000529,-0.000879,0.315381,1.192203,2.638045,778.92,15.00,highres
135.247355,9916871302,0.637425,-0.003526,-9.724095,-0.000123,-0.000178,-0.001094,0.315381,1.192203,2.638045,778.92,15.00,highres
135.258638,9916882922,0.640617,-0.000905,-9.732012,0.000503,0.001305,0.000245,0.315381,1.192203,2.638045,778.91,15.00,highres
135.259809,9916890192,0.629963,0.003128,-9.731062,-0.000054,-0.000071,-0.000987,0.315381,1.192203,2.638045,778.91,15.00,highres
135.276963,9916896121,0.639142,0.006350,-9.738310,-0.001039,0.000079,-0.000939,0.315381,1.192203,2.638045,778.91,15.00,highres
135.283772,9916909226,0.645972,0.009574,-9.728866,-0.001190,0.000176,-0.000360,0.335010,1.183675,2.643800,778.91,15.00,highres
135.289307,9916918666,0.645163,0.006544,-9.740882,0.000488,0.001321,-0.001428,0.335010,1.183675,2.643800,778.91,15.00,highres
135.299176,9916923550,0.644700,0.006179,-9.734762,0.000017,-0.000726,-0.001238,0.335010,1.183675,2.643800,778.91,15.00,highres
135.317289,9916936019,0.641048,0.010808,-9.737792,0.000182,0.000736,-0.001288,0.335010,1.183675,2.643800,778.91,15.00,highres
135.325062,9916941331,0.636598,0.001224,-9.726553,-0.000123,0.001015,-0.000817,0.335010,1.183675,2.643800,778.91,15.00,highres
135.337728,9916951095,0.636102,0.016061,-9.725821,-0.000123,0.001626,-0.000511,0.335010,1.183675,2.643800,778.91,15.00,highres
135.347576,9916957230,0.640501,0.015716,-9.724089,-0.000123,0.001321,-0.001122,0.335010,1.183675,2.643800,778.91,15.00,highres
135.357468,9916969630,0.639209,0.012489,-9.729634,-0.000564,-0.000038,-0.000817,0.335010,1.183675,2.643800,778.91,15.00,highres
135.363801,9916976193,0.645259,-0.003456,-9.733742,-0.000123,-0.001857,-0.000297,0.335010,1.183675,2.643800,778.91,15.00,highres
135.377741,9916986598,0.639364,0.008186,-9.741341,0.000461,0.000988,-0.000511,0.335010,1.183675,2.643800,778.91,15.00,highres
135.381331,9916999380,0.640543,0.005407,-9.731937,-0.000241,-0.000324,-0.000268,0.335010,1.183675,2.643800,778.91,15.00,highres
135.397674,9917003330,0.642633,0.005791,-9.732570,0.000245,0.000638,-0.000952,0.335010,1.183675,2.643800,778.91,15.00,highres
135.399661,9917013849,0.637714,0.005080,-9.744671,-0.001039,0.000710,-0.001122,0.335010,1.183675,2.643800,778.91,15.00,highres
135.417421,9917022140,0.635082,0.016809,-9.740847,-0.000090,0.001139,-0.001428,0.321851,1.200785,2.629779,778.90,15.00,highres
135.423386,9917035250,0.646549,0.008958,-9.729229,0.000182,0.000710,-0.000511,0.330366,1.200476,2.618154,778.90,15.00,highres
135.423386,9917039729,0.634582,0.013963,-9.731001,-0.000917,0.000893,-0.001428,0.330366,1.200476,2.618154,778.90,15.00,highres
135.423386,9917070918,0.639167,0.000382,-9.739493,0.000168,0.000178,-0.000860,0.330366,1.200476,2.618154,778.90,15.00,highres
135.423386,9917081453,0.640965,0.013582,-9.744487,0.000647,0.000321,-0.000174,0.330366,1.200476,2.618154,778.90,15.00,highres
135.464716,9917094258,0.639562,0.006202,-9.735292,-0.000429,-0.000482,0.000303,0.330366,1.200476,2.618154,778.90,15.00,highres
135.478397,9917099048,0.638022,0.008314,-9.741006,0.000182,0.000479,-0.001292,0.330366,1.200476,2.618154,778.90,15.00,highres
135.482038,9917113810,0.638253,-0.003406,-9.742413,0.000559,0.000012,-0.000207,0.330366,1.200476,2.618154,778.90,15.00,highres
135.496250,9917126230,0.636775,0.002967,-9.736449,0.000396,0.000913,0.000099,0.330366,1.200476,2.618154,778.90,15.00,highres
135.499115,9917131181,0.638887,0.001487,-9.745617,0.000487,0.001257,-0.000778,0.330366,1.200476,2.618154,778.90,15.00,highres
135.516509,9917144288,0.636580,0.008670,-9.732427,-0.000429,0.000413,-0.000981,0.330366,1.200476,2.618154,778.90,15.00,highres
135.523494,9917156315,0.640920,0.011424,-9.732478,-0.000062,-0.000047,-0.001366,0.330366,1.200476,2.618154,778.90,15.00,highres
135.537329,9917161291,0.649415,0.002453,-9.740353,0.000487,-0.000482,-0.001123,0.330366,1.200476,2.618154,778.90,15.00,highres
135.548948,9917170953,0.632431,-0.001889,-9.719875,-0.000609,0.000812,-0.000117,0.330366,1.200476,2.618154,778.90,15.00,highres
135.558414,9917184206,0.642108,0.004579,-9.741327,0.000228,0.000434,-0.000818,0.326230,1.202870,2.632003,778.90,15.00,highres
135.561036,9917194174,0.641975,0.011723,-9.736231,0.000133,0.001222,-0.000817,0.326230,1.202870,2.632003,778.90,15.00,highres
135.570077,9917199072,0.641281,0.003881,-9.734843,0.000487,-0.000482,-0.000512,0.319147,1.205286,2.629899,778.90,15.00,highres
135.586610,9917211510,0.641089,0.009119,-9.731443,0.000345,-0.000157,-0.000135,0.319147,1.205286,2.629899,778.90,15.00,highres
135.586610,9917215994,0.649431,0.009194,-9.729906,-0.000014,0.001155,-0.000387,0.319147,1.205286,2.629899,778.90,15.00,highres
135.601559,9917236664,0.631650,0.006847,-9.734843,-0.000589,0.001350,0.000245,0.319147,1.205286,2.629899,778.90,15.00,highres
135.617014,9917241120,0.648111,0.010289,-9.738787,0.000576,0.001153,-0.000187,0.319147,1.205286,2.629899,778.90,15.00,highres
135.623004,9917254020,0.635749,-0.002751,-9.742867,0.000016,0.000599,-0.000461,0.319147,1.205286,2.629899,778.90,15.00,highres
135.637771,9917263726,0.636188,0.005241,-9.730522,0.000182,-0.000177,-0.000817,0.319147,1.205286,2.629899,778.90,15.00,highres
135.647996,9917269565,0.630652,0.004263,-9.736277,-0.000478,0.000000,-0.000641,0.319147,1.205286,2.629899,778.90,15.00,highres
135.656639,9917273924,0.639108,0.005566,-9.726776,-0.000735,0.000554,-0.000305,0.319147,1.205286,2.629899,778.90,15.00,highres
135.659289,9917289048,0.640804,0.007019,-9.732217,-0.000735,0.000434,0.000099,0.319147,1.205286,2.629899,778.90,15.00,highres
135.676612,9917294670,0.635343,0.009481,-9.721148,-0.000305,0.000802,-0.001307,0.319147,1.205286,2.629899,778.90,15.00,highres
135.681657,9917300166,0.644296,0.002684,-9.729015,0.000328,-0.000764,-0.000671,0.319147,1.205286,2.629899,778.90,15.00,highres
135.697795,9917312521,0.645375,0.008543,-9.729172,-0.000817,0.000563,0.000451,0.321800,1.199993,2.628961,778.90,15.00,highres
135.706459,9917321298,0.637683,-0.002104,-9.727654,0.000487,0.001350,-0.001734,0.321800,1.199993,2.628961,778.90,15.00,highres
135.716572,9917331710,0.633586,-0.000052,-9.739289,-0.000276,0.001813,-0.001271,0.338130,1.200005,2.627918,778.90,15.00,highres
135.723448,9917337460,0.635296,-0.000907,-9.731253,0.000277,0.001245,-0.000225,0.338130,1.200005,2.627918,778.90,15.00,highres
135.736795,9917343766,0.636493,0.012261,-9.727660,-0.000063,0.000067,0.000770,0.338130,1.200005,2.627918,778.91,15.00,highres
135.739986,9917371243,0.631771,0.006322,-9.734189,-0.000124,0.000654,-0.001171,0.338130,1.200005,2.627918,778.91,15.00,highres
135.758156,9917381541,0.633507,0.010472,-9.737378,0.000793,0.000129,-0.000512,0.338130,1.200005,2.627918,778.91,15.00,highres
135.759940,9917387596,0.641991,0.003526,-9.731163,-0.000186,0.000739,-0.001369,0.338130,1.200005,2.627918,778.91,15.00,highres
135.774564,9917403821,0.634881,-0.000238,-9.737157,-0.000787,0.000845,-0.000638,0.338130,1.200005,2.627918,778.91,15.00,highres
135.782669,9917414331,0.646599,-0.002104,-9.736876,-0.000231,0.001564,-0.000207,0.338130,1.200005,2.627918,778.91,15.00,highres
135.797545,9917418974,0.649660,-0.000907,-9.737051,0.000793,0.001045,0.000710,0.338130,1.200005,2.627918,778.91,15.00,highres
135.808130,9917429952,0.643145,0.010142,-9.730194,-0.000582,0.000432,-0.001123,0.338130,1.200005,2.627918,778.91,15.00,highres
135.817592,9917442867,0.634102,0.002383,-9.737241,-0.000882,0.000275,-0.000818,0.338130,1.200005,2.627918,778.91,15.00,highres
135.822745,9917448025,0.634890,0.012656,-9.729661,-0.000486,0.000682,-0.000321,0.338130,1.200005,2.627918,778.91,15.00,highres
135.838045,9917463622,0.642890,0.005194,-9.736826,0.000645,0.001656,-0.000059,0.319941,1.200922,2.631453,778.91,15.00,highres
135.846961,9917468773,0.641107,-0.005695,-9.731760,0.000487,-0.000177,-0.001123,0.319941,1.200922,2.631453,778.91,15.00,highres
135.858013,9917482054,0.636493,0.001487,-9.732449,0.000793,-0.000237,-0.001063,0.323876,1.220724,2.629645,778.91,15.00,highres
135.859974,9917492093,0.648463,0.008957,-9.743463,0.000962,0.001589,0.000574,0.323876,1.220724,2.629645,778.91,15.00,highres
135.877092,9917497404,0.645452,0.008953,-9.745591,-0.000124,0.000434,0.000710,0.323876,1.220724,2.629645,778.91,15.00,highres
135.883248,9917511811,0.645450,0.000840,-9.728845,-0.000255,0.001264,-0.000207,0.323876,1.220724,2.629645,778.91,15.00,highres
135.897684,9917517105,0.640498,0.014125,-9.728997,-0.000583,0.000742,-0.000207,0.323876,1.220724,2.629645,778.91,15.00,highres
135.900759,9917527789,0.629438,0.025985,-9.733204,0.000182,0.001045,-0.000817,0.323876,1.220724,2.629645,778.91,15.00,highres
135.916454,9917539153,0.644201,-0.035041,-9.754890,-0.002013,0.000615,0.000156,0.323876,1.220724,2.629645,778.91,15.00,highres
135.923759,9917543852,0.639179,0.028301,-9.728924,0.002630,0.001200,-0.002349,0.323876,1.220724,2.629645,778.91,15.00,highres
135.937222,9917561895,0.643475,0.012500,-9.746615,-0.000530,0.000716,-0.000274,0.323876,1.220724,2.629645,778.91,15.00,highres
135.947095,9917574020,0.644534,0.017075,-9.709497,-0.000463,0.000739,0.000162,0.323876,1.220724,2.629645,778.91,15.00,highres
135.957394,9917584048,0.630038,0.013765,-9.737755,-0.002262,0.000899,-0.000061,0.323876,1.220724,2.629645,778.91,15.00,highres
135.959188,9917589800,0.632902,0.020640,-9.750405,-0.001040,0.001045,0.000099,0.323876,1.220724,2.629645,778.91,15.00,highres
135.978106,9917605223,0.632498,0.006899,-9.727505,0.000248,0.000718,-0.000098,0.314727,1.208587,2.633202,778.91,15.00,highres
135.982364,9917611518,0.635848,0.016492,-9.728584,-0.000258,0.001790,-0.000867,0.314727,1.208587,2.633202,778.91,15.00,highres
135.997100,9917621502,0.642839,-0.008373,-9.737351,-0.000124,0.000434,-0.000207,0.317685,1.192367,2.635250,778.91,15.00,highres
136.007385,9917627895,0.640661,0.011597,-9.729565,0.000793,0.000644,-0.000207,0.317685,1.192367,2.635250,778.91,15.00,highres
136.013399,9917634226,0.643110,0.001754,-9.745253,-0.000001,0.000089,0.000547,0.317685,1.192367,2.635250,778.91,15.00,highres
136.023376,9917648935,0.635296,0.007473,-9.737237,-0.000508,0.000867,-0.000029,0.317685,1.192367,2.635250,778.91,15.00,highres
136.037904,9917664463,0.641823,0.006335,-9.727950,-0.001927,0.000710,-0.000039,0.317685,1.192367,2.635250,778.91,15.00,highres
136.047341,9917670113,0.641287,0.000874,-9.731237,0.000487,0.001174,-0.000689,0.317685,1.192367,2.635250,778.91,15.00,highres
136.056740,9917679117,0.630484,0.009890,-9.732613,0.000182,0.002267,0.000404,0.317685,1.192367,2.635250,778.92,15.00,highres
136.058455,9917691498,0.641281,-0.004498,-9.733646,0.000182,0.000434,-0.000619,0.317685,1.192367,2.635250,778.92,15.00,highres
136.076168,9917697063,0.646564,0.009419,-9.729065,-0.000079,0.000348,0.000579,0.317685,1.192367,2.635250,778.92,15.00,highres
136.084123,9917710592,0.647266,-0.003301,-9.737238,0.000294,-0.000177,-0.000680,0.317685,1.192367,2.635250,778.92,15.00,highres
136.097524,9917717172,0.637463,0.011951,-9.728404,-0.000545,0.001020,0.000099,0.317685,1.192367,2.635250,778.92,15.00,highres
136.099214,9917727263,0.639105,0.004970,-9.734735,-0.000134,0.000848,-0.001340,0.317685,1.192367,2.635250,778.92,15.00,highres
136.117448,9917739916,0.635351,0.009131,-9.736040,-0.000740,0.002566,0.000260,0.318612,1.202152,2.633596,778.92,15.00,highres
136.122148,9917744144,0.641896,-0.001880,-9.735168,-0.000124,0.000251,-0.000758,0.318612,1.202152,2.633596,778.92,15.00,highres
136.137949,9917764731,0.631704,0.009867,-9.737239,-0.000044,0.001125,-0.000367,0.319147,1.219722,2.624069,778.92,15.00,highres
136.146595,9917769667,0.631982,0.008734,-9.738927,-0.000569,0.000102,-0.001289,0.319147,1.219722,2.624069,778.92,15.00,highres
136.156998,9917781615,0.639602,0.006755,-9.738433,0.000048,0.000739,-0.000779,0.319147,1.219722,2.624069,778.92,15.00,highres
136.158716,9917792252,0.628699,-0.002053,-9.737288,-0.000592,0.000135,-0.000356,0.319147,1.219722,2.624069,778.92,15.00,highres
136.177908,9917803477,0.634639,0.012763,-9.727042,-0.000124,0.001745,-0.000729,0.319147,1.219722,2.624069,778.92,15.00,highres
136.184144,9917815251,0.637542,0.012857,-9.733795,-0.000933,0.000228,-0.000520,0.319147,1.219722,2.624069,778.92,15.00,highres
136.197469,9917824196,0.637961,-0.007897,-9.728314,-0.000242,0.001705,0.000966,0.319147,1.219722,2.624069,778.92,15.00,highres
136.199469,9917831508,0.631002,0.006543,-9.734368,-0.000429,0.000970,-0.000385,0.319147,1.219722,2.624069,778.92,15.00,highres
136.217194,9917842206,0.638060,0.013675,-9.741350,0.000581,0.001805,0.001282,0.319147,1.219722,2.624069,778.91,15.00,highres
136.224863,9917855260,0.644209,0.006810,-9.745689,-0.000438,0.000887,0.001478,0.319147,1.219722,2.624069,778.91,15.00,highres
136.238132,9917865938,0.640084,0.008670,-9.722874,0.000182,0.000059,0.000592,0.319147,1.219722,2.624069,778.91,15.00,highres
136.246839,9917872265,0.640429,0.007641,-9.737053,-0.000225,0.000030,0.000503,0.321475,1.198630,2.630163,778.91,15.00,highres
136.257561,9917884187,0.640568,0.001194,-9.733099,-0.000362,0.000925,0.000285,0.321475,1.198630,2.630163,778.91,15.00,highres
136.260834,9917892262,0.636103,0.004439,-9.740300,-0.000330,0.002572,0.000234,0.321475,1.198630,2.630163,778.91,15.00,highres
136.276515,9917896956,0.638274,0.009810,-9.737737,0.000131,0.000739,-0.000512,0.330788,1.206780,2.627089,778.91,15.00,highres
136.283258,9917907094,0.632285,-0.000290,-9.727241,-0.000735,0.000434,-0.000512,0.330788,1.206780,2.627089,778.91,15.00,highres
136.297098,9917916841,0.637533,0.004944,-9.740829,0.000487,0.000129,-0.000207,0.330788,1.206780,2.627089,778.91,15.00,highres
136.304153,9917926963,0.636682,0.005771,-9.737930,-0.000060,0.001003,-0.000175,0.330788,1.206780,2.627089,778.91,15.00,highres
136.316857,9917932141,0.640636,0.005723,-9.729042,-0.000625,0.001558,-0.000646,0.330788,1.206780,2.627089,778.91,15.00,highres
136.322411,9917941506,0.660442,0.002692,-9.747417,-0.000253,-0.000032,-0.000688,0.330788,1.206780,2.627089,778.91,15.00,highres
136.336684,9917954521,0.654336,0.002203,-9.734004,-0.000429,0.000999,-0.000629,0.330788,1.206780,2.627089,778.91,15.00,highres
136.346669,9917964145,0.637690,0.005078,-9.724071,-0.000199,0.001426,0.000214,0.330788,1.206780,2.627089,778.91,15.00,highres
136.356823,9917977803,0.646044,0.005665,-9.743297,0.000068,0.001350,0.001015,0.330788,1.206780,2.627089,778.91,15.00,highres
136.358647,9917983016,0.642055,0.005924,-9.730269,0.000182,0.000617,0.000832,0.330788,1.206780,2.627089,778.91,15.00,highres
136.376735,9918002380,0.638524,0.008285,-9.734438,-0.000466,0.000129,0.000747,0.330788,1.206780,2.627089,778.91,15.00,highres
136.382385,9918014593,0.637451,0.011638,-9.743176,-0.000429,0.001802,0.000172,0.321554,1.206884,2.630063,778.91,15.00,highres
136.398258,9918020396,0.641281,0.007473,-9.730055,0.000947,0.001045,0.000407,0.321554,1.206884,2.630063,778.91,15.00,highres
136.399976,9918031940,0.637261,0.003881,-9.729106,-0.000620,0.001196,-0.000322,0.321554,1.206884,2.630063,778.91,15.00,highres
136.417695,9918042426,0.642478,0.005078,-9.734776,0.000163,0.000309,-0.000494,0.316640,1.201955,2.629421,778.91,15.00,highres
136.423152,9918055517,0.632981,0.009148,-9.733088,-0.000891,0.000122,0.000703,0.316640,1.201955,2.629421,778.91,15.00,highres
136.423152,9918064897,0.629362,0.009909,-9.736506,0.000518,0.001319,0.001015,0.316640,1.201955,2.629421,778.91,15.00,highres
136.423152,9918072540,0.637862,0.002852,-9.729705,-0.000342,-0.000177,-0.000471,0.316640,1.201955,2.629421,778.91,15.00,highres
136.423152,9918084483,0.635264,0.010640,-9.732026,0.000195,0.001114,0.000000,0.316640,1.201955,2.629421,778.92,15.00,highres
136.463763,9918089664,0.644840,-0.002095,-9.728103,0.000585,0.001088,-0.000782,0.316640,1.201955,2.629421,778.92,15.00,highres
136.478372,9918099656,0.640750,0.008255,-9.733167,0.000487,0.000783,-0.000526,0.316640,1.201955,2.629421,778.92,15.00,highres
136.483082,9918104568,0.641683,0.000943,-9.734300,0.000768,0.000147,-0.000856,0.316640,1.201955,2.629421,778.92,15.00,highres
136.497179,9918114721,0.636827,0.005553,-9.732108,0.000487,0.001145,0.000209,0.316640,1.201955,2.629421,778.92,15.00,highres
136.503319,9918129395,0.638943,0.007376,-9.723941,0.000487,0.000172,-0.001137,0.316640,1.201955,2.629421,778.92,15.00,highres
136.517554,9918139467,0.638700,0.009528,-9.730677,-0.000124,0.000944,-0.000975,0.316640,1.201955,2.629421,778.92,15.00,highres
136.522873,9918149598,0.634616,0.012072,-9.734440,-0.000735,0.000783,0.000390,0.316640,1.201955,2.629421,778.92,15.00,highres
136.535805,9918154202,0.638188,0.008029,-9.739014,-0.000257,0.000555,-0.000048,0.327643,1.203109,2.629901,778.92,15.00,highres
136.547210,9918165536,0.644483,0.014374,-9.732796,-0.001201,0.000011,-0.001731,0.327643,1.203109,2.629901,778.92,15.00,highres
136.559193,9918184439,0.638855,0.018255,-9.732891,0.000331,0.000776,0.000696,0.315269,1.205075,2.628986,778.92,15.00,highres
136.560421,9918189726,0.638751,0.013519,-9.728155,0.000434,0.001393,-0.000239,0.315269,1.205075,2.628986,778.92,15.00,highres
136.569332,9918204481,0.649628,0.000604,-9.737004,-0.000735,0.000477,0.000263,0.315269,1.205075,2.628986,778.92,15.00,highres
136.584704,9918210430,0.647808,0.005137,-9.734713,0.000736,0.000449,-0.000302,0.315269,1.205075,2.628986,778.92,15.00,highres
136.596473,9918219884,0.632869,0.015861,-9.735287,-0.000429,0.000783,-0.000831,0.315269,1.205075,2.628986,778.92,15.00,highres
136.598339,9918229694,0.644423,0.012426,-9.736692,0.000071,0.001699,0.000585,0.315269,1.205075,2.628986,778.92,15.00,highres
136.616710,9918239570,0.641219,0.005073,-9.732879,0.000244,0.001169,-0.000750,0.315269,1.205075,2.628986,778.91,15.00,highres
136.622136,9918253154,0.643606,0.003891,-9.728928,0.000898,0.000668,0.000696,0.315269,1.205075,2.628986,778.91,15.00,highres
136.637855,9918264809,0.638118,0.009047,-9.738600,-0.000275,0.000930,-0.001288,0.315269,1.205075,2.628986,778.91,15.00,highres
136.649015,9918270930,0.641676,0.002266,-9.742353,0.000625,0.000892,-0.001413,0.315269,1.205075,2.628986,778.91,15.00,highres
136.657379,9918277203,0.642696,0.005199,-9.735537,-0.000124,0.001386,-0.000317,0.315269,1.205075,2.628986,778.91,15.00,highres
136.659167,9918290360,0.642446,0.005088,-9.735286,-0.000242,-0.000128,0.000085,0.315269,1.205075,2.628986,778.91,15.00,highres
136.678610,9918302870,0.645898,0.003677,-9.740422,-0.001170,0.000717,-0.000526,0.325484,1.200811,2.633785,778.91,15.00,highres
136.683098,9918313455,0.639336,-0.001378,-9.726984,0.000487,-0.000011,-0.000363,0.326284,1.194471,2.633801,778.91,15.00,highres
136.697855,9918325521,0.634165,0.006651,-9.727736,-0.000640,0.001804,0.000085,0.326284,1.194471,2.633801,778.91,15.00,highres
136.699797,9918332061,0.638230,0.012235,-9.735841,0.000182,0.000477,-0.000526,0.326284,1.194471,2.633801,778.91,15.00,highres
136.717332,9918340318,0.638855,0.022323,-9.735530,0.000487,0.002174,0.000390,0.326284,1.194471,2.633801,778.91,15.00,highres
136.722114,9918349860,0.638439,0.009314,-9.725637,0.000182,0.001574,-0.000957,0.326284,1.194471,2.633801,778.91,15.00,highres
136.736704,9918359953,0.641956,0.005088,-9.735401,0.000914,0.000569,-0.001074,0.326284,1.194471,2.633801,778.91,15.00,highres
136.747602,9918370947,0.631672,0.001497,-9.737681,0.000122,0.000295,-0.000831,0.326284,1.194471,2.633801,778.91,15.00,highres
136.757959,9918382219,0.642031,-0.004957,-9.732217,0.000023,0.001100,-0.000673,0.326284,1.194471,2.633801,778.91,15.00,highres
136.760534,9918392263,0.637658,0.007298,-9.734366,-0.000429,0.001842,0.000453,0.326284,1.194471,2.633801,778.91,15.00,highres
136.778204,9918405615,0.638789,0.010823,-9.729800,0.000571,0.001699,0.000138,0.326284,1.194471,2.633801,778.92,15.00,highres
136.783094,9918412223,0.641069,-0.005865,-9.735571,-0.000616,0.000737,-0.000243,0.326284,1.194471,2.633801,778.92,15.00,highres
136.799642,9918422476,0.635657,0.013997,-9.729181,0.000657,-0.000033,-0.001237,0.326284,1.194471,2.633801,778.92,15.00,highres
136.801216,9918429147,0.640052,0.005088,-9.738876,0.000131,0.000273,-0.000704,0.326284,1.194471,2.633801,778.92,15.00,highres
136.817886,9918439676,0.639577,0.008679,-9.731006,0.000487,0.001088,-0.001464,0.321066,1.204255,2.636296,778.92,15.00,highres
136.825278,9918449839,0.648164,0.005355,-9.738610,0.000996,0.000274,-0.000577,0.321066,1.204255,2.636296,778.92,15.00,highres
136.838668,9918463405,0.640911,0.004905,-9.722456,0.000159,0.000391,0.000085,0.315000,1.199390,2.635993,778.92,15.00,highres
136.846484,9918475301,0.636819,0.005988,-9.741210,-0.000687,0.000877,-0.000091,0.315000,1.199390,2.635993,778.92,15.00,highres
136.857221,9918479889,0.643196,0.009227,-9.728752,-0.000455,0.000897,-0.000971,0.315000,1.199390,2.635993,778.92,15.00,highres
136.866281,9918490399,0.631735,0.010653,-9.727262,0.001098,0.001806,-0.000327,0.315000,1.199390,2.635993,778.92,15.00,highres
136.876380,9918502152,0.637102,-0.001839,-9.735116,0.000217,-0.000174,-0.000261,0.315000,1.199390,2.635993,778.92,15.00,highres
136.883489,9918510901,0.638382,-0.003764,-9.736200,0.000769,0.001605,0.000085,0.315000,1.199390,2.635993,778.92,15.00,highres
136.897332,9918520405,0.631418,-0.009047,-9.744124,0.000349,0.001423,-0.001137,0.315000,1.199390,2.635993,778.92,15.00,highres
136.907607,9918532897,0.637970,0.006961,-9.726906,0.000182,0.000345,-0.000261,0.315000,1.199390,2.635993,778.92,15.00,highres
136.917935,9918545565,0.637518,0.018012,-9.731730,-0.000437,0.000757,-0.001451,0.315000,1.199390,2.635993,778.92,15.00,highres
136.922873,9918550168,0.637758,0.014585,-9.731135,-0.000429,0.001393,-0.000220,0.315000,1.199390,2.635993,778.92,15.00,highres
136.938139,9918557533,0.637658,0.009193,-9.729640,-0.000548,0.000969,0.000085,0.315000,1.199390,2.635993,778.92,15.00,highres
136.947485,9918568835,0.628655,0.006580,-9.732302,0.000182,0.001393,-0.000526,0.315000,1.199390,2.635993,778.92,15.00,highres
136.958550,9918575358,0.629278,0.005088,-9.735286,-0.000124,0.001519,-0.000948,0.325251,1.199516,2.629658,778.92,15.00,highres
136.961028,9918588120,0.640052,0.002694,-9.740074,-0.000268,0.000765,0.000067,0.315434,1.193868,2.632517,778.92,15.00,highres
136.969549,9918598278,0.637304,0.004244,-9.730471,0.000915,0.001088,-0.000221,0.315434,1.193868,2.632517,778.92,15.00,highres
136.989453,9918608413,0.638315,0.004783,-9.732891,-0.000124,0.001699,-0.000220,0.315434,1.193868,2.632517,778.92,15.00,highres
136.997290,9918617698,0.643097,0.000335,-9.740108,0.000182,0.001699,-0.000220,0.315434,1.193868,2.632517,778.92,15.00,highres
137.000384,9918629681,0.645314,0.006014,-9.730272,0.000025,0.000023,-0.000831,0.315434,1.193868,2.632517,778.92,15.00,highres
137.017733,9918641162,0.641419,0.005828,-9.735002,-0.000877,0.001251,-0.002179,0.315434,1.193868,2.632517,778.92,15.00,highres
137.023343,9918645337,0.645100,0.005817,-9.720192,0.000036,0.001713,-0.000567,0.315434,1.193868,2.632517,778.92,15.00,highres
137.037395,9918658739,0.637967,0.012579,-9.742912,-0.000393,0.000477,0.000085,0.315434,1.193868,2.632517,778.92,15.00,highres
137.039022,9918662489,0.645322,0.013110,-9.731819,0.000679,0.000739,-0.000604,0.315434,1.193868,2.632517,778.92,15.00,highres
137.057324,9918675803,0.640945,0.006445,-9.740059,-0.001168,0.000783,-0.000349,0.315434,1.193868,2.632517,778.92,15.00,highres
137.059666,9918683198,0.638197,0.005135,-9.733433,-0.001040,-0.000209,-0.000376,0.315434,1.193868,2.632517,778.92,15.00,highres
137.077698,9918692466,0.642446,0.003891,-9.742469,-0.000735,0.000405,-0.000526,0.315434,1.193868,2.632517,778.92,15.00,highres
137.082970,9918701137,0.653243,0.003507,-9.730114,0.000587,0.002210,-0.001339,0.315434,1.193868,2.632517,778.92,15.00,highres
137.090472,9918712483,0.644659,0.003891,-9.731868,-0.000439,0.000143,0.000214,0.323911,1.200619,2.631267,778.92,15.00,highres
137.105302,9918725594,0.631900,0.008679,-9.730008,0.000702,0.000882,-0.000427,0.323911,1.200619,2.631267,778.92,15.00,highres
137.115184,9918730595,0.636137,0.003331,-9.738477,0.000487,0.001088,-0.001137,0.319416,1.210971,2.622891,778.92,15.00,highres
137.126013,9918740256,0.653257,0.013524,-9.738895,0.000364,0.002009,-0.000895,0.319416,1.210971,2.622891,778.92,15.00,highres
137.138407,9918770967,0.639506,0.012239,-9.723967,0.000546,0.001589,-0.000551,0.319416,1.210971,2.622891,778.92,15.00,highres
137.155930,9918782689,0.642638,0.014664,-9.741654,0.000566,0.000911,-0.000526,0.319416,1.210971,2.622891,778.92,15.00,highres
137.161013,9918792335,0.642821,0.012663,-9.734858,0.000588,0.001497,-0.001339,0.319416,1.210971,2.622891,778.92,15.00,highres
137.167129,9918802584,0.640754,0.003891,-9.734999,-0.000013,0.001004,0.000585,0.319416,1.210971,2.622891,778.92,15.00,highres
137.181677,9918808674,0.632650,0.013906,-9.731256,-0.000235,0.002443,-0.000608,0.319416,1.210971,2.622891,778.92,15.00,highres
137.195799,9918815748,0.641664,0.016798,-9.732786,-0.000057,0.000504,0.000019,0.319416,1.210971,2.622891,778.92,15.00,highres
137.198221,9918825541,0.640516,0.007751,-9.734821,-0.000285,0.000961,-0.000993,0.319416,1.210971,2.622891,778.92,15.00,highres
137.217806,9918837438,0.637246,0.009465,-9.741758,0.000487,0.001088,-0.001192,0.319416,1.210971,2.622891,778.92,15.00,highres
137.223609,9918848132,0.645313,0.015611,-9.741967,-0.000284,0.000156,0.000390,0.319416,1.210971,2.622891,778.92,15.00,highres
137.238221,9918860312,0.645069,0.011574,-9.726133,-0.000124,0.002310,0.000696,0.319917,1.200670,2.630118,778.92,15.00,highres
137.246923,9918865487,0.640584,0.016393,-9.741405,0.000182,0.000194,0.000085,0.319917,1.200670,2.630118,778.92,15.00,highres
137.248832,9918877487,0.628901,0.011620,-9.736322,0.000274,0.000020,-0.000891,0.327751,1.207380,2.629246,778.91,15.00,highres
137.258860,9918888591,0.648778,-0.000519,-9.723285,0.000639,0.000322,-0.000217,0.327751,1.207380,2.629246,778.91,15.00,highres
137.276249,9918892726,0.636461,-0.001921,-9.732682,0.000487,0.000097,-0.000485,0.327751,1.207380,2.629246,778.91,15.00,highres
137.281450,9918912530,0.644298,0.006058,-9.744548,0.000826,0.000746,-0.000323,0.327751,1.207380,2.629246,778.91,15.00,highres
137.289938,9918917464,0.645225,0.011885,-9.732336,-0.000076,0.001570,-0.000783,0.327751,1.207380,2.629246,778.91,15.00,highres
137.299033,9918930215,0.645865,0.008124,-9.721220,0.000402,0.001478,-0.000746,0.327751,1.207380,2.629246,778.91,15.00,highres
137.315791,9918935790,0.643684,0.007198,-9.730782,-0.000282,0.001699,-0.000819,0.327751,1.207380,2.629246,778.91,15.00,highres
137.323812,9918953073,0.640432,-0.004544,-9.734174,0.000494,0.000984,-0.000928,0.327751,1.207380,2.629246,778.91,15.00,highres
137.336084,9918957962,0.641249,0.005088,-9.726907,0.000182,0.002310,-0.000526,0.327751,1.207380,2.629246,778.91,15.00,highres
137.339286,9918963675,0.641249,0.007386,-9.729972,0.000625,0.001470,-0.000999,0.327751,1.207380,2.629246,778.91,15.00,highres
137.347466,9918976078,0.640489,0.002187,-9.730497,-0.000058,0.000978,0.000325,0.327751,1.207380,2.629246,778.91,15.00,highres
137.358731,9918986091,0.644840,0.004234,-9.734773,-0.000646,0.001131,-0.000089,0.327751,1.207380,2.629246,778.91,15.00,highres
137.369076,9919000633,0.637264,0.003095,-9.737696,-0.000651,0.001477,-0.000581,0.320523,1.200188,2.628796,778.91,15.00,highres
137.389122,9919005887,0.639670,0.007533,-9.736534,0.000031,-0.000143,-0.000371,0.327330,1.183128,2.653118,778.91,15.00,highres
137.391149,9919019465,0.635311,0.002694,-9.738396,0.000487,0.001389,-0.000626,0.327330,1.183128,2.653118,778.91,15.00,highres
137.405952,9919030383,0.646329,-0.003204,-9.742176,-0.000059,0.001458,-0.000831,0.327330,1.183128,2.653118,778.91,15.00,highres
137.413815,9919040555,0.643097,0.008063,-9.736993,0.000618,0.000041,-0.000831,0.327330,1.183128,2.653118,778.91,15.00,highres
137.423477,9919052793,0.626070,0.006668,-9.731071,-0.000069,0.000547,-0.000471,0.327330,1.183128,2.653118,778.91,15.00,highres
137.426724,9919058363,0.635342,0.008794,-9.742081,-0.000735,0.001088,-0.000831,0.327330,1.183128,2.653118,778.91,15.00,highres
137.426724,9919069960,0.632640,0.000071,-9.736661,0.000793,0.000909,-0.001010,0.327330,1.183128,2.653118,778.91,15.00,highres
137.426724,9919073434,0.631616,0.001553,-9.736371,0.000111,0.001558,-0.001066,0.327330,1.183128,2.653118,778.91,15.00,highres
137.426724,9919086075,0.632820,0.005083,-9.741123,-0.000266,-0.000058,-0.000440,0.327330,1.183128,2.653118,778.91,15.00,highres
137.476699,9919096567,0.632820,-0.002212,-9.730634,-0.000038,-0.000152,-0.000952,0.327330,1.183128,2.653118,778.91,15.00,highres
137.483501,9919103662,0.626234,-0.007484,-9.733941,0.000261,0.001022,-0.000048,0.327330,1.183128,2.653118,778.91,15.00,highres
137.490211,9919112982,0.642815,0.006280,-9.727671,-0.001132,-0.000090,-0.001025,0.327330,1.183128,2.653118,778.91,15.00,highres
137.499319,9919124207,0.626044,0.015059,-9.733945,0.000307,0.000026,-0.001266,0.327330,1.183128,2.653118,778.91,15.00,highres
137.516141,9919142815,0.642398,0.005497,-9.735456,-0.000123,0.001327,-0.000195,0.317807,1.202634,2.629546,778.91,15.00,highres
137.525771,9919150698,0.635956,0.002689,-9.731286,-0.000318,0.001180,0.000581,0.328471,1.205761,2.634638,778.91,15.00,highres
137.535945,9919161158,0.627180,0.010155,-9.730844,-0.000183,0.001204,0.000140,0.328471,1.205761,2.634638,778.91,15.00,highres
137.537692,9919166480,0.649667,0.011112,-9.735769,-0.000591,0.001126,-0.000536,0.328471,1.205761,2.634638,778.91,15.00,highres
137.555674,9919181098,0.647184,0.012265,-9.742321,-0.000342,-0.000395,0.000286,0.328471,1.205761,2.634638,778.91,15.00,highres
137.560347,9919187463,0.642813,0.015908,-9.736544,-0.000435,0.000269,0.001003,0.328471,1.205761,2.634638,778.91,15.00,highres
137.568576,9919203727,0.643120,0.009581,-9.732981,-0.000606,0.001474,-0.000487,0.328471,1.205761,2.634638,778.91,15.00,highres
137.583298,9919209675,0.640240,0.006040,-9.730829,-0.001412,0.001376,-0.000891,0.328471,1.205761,2.634638,778.91,15.00,highres
137.589648,9919222138,0.639199,0.010666,-9.738324,0.000176,0.000623,0.000289,0.328471,1.205761,2.634638,778.91,15.00,highres
137.597778,9919229481,0.641777,0.010745,-9.727592,0.000481,0.000891,-0.000126,0.328471,1.205761,2.634638,778.91,15.00,highres
137.616563,9919240929,0.632820,0.000850,-9.737534,-0.001219,0.001051,-0.001216,0.328471,1.205761,2.634638,778.91,15.00,highres
137.623776,9919246152,0.644661,-0.002604,-9.734633,-0.000080,0.000521,-0.001060,0.328471,1.205761,2.634638,778.91,15.00,highres
137.636715,9919261553,0.645664,0.010518,-9.744208,0.000528,0.002131,-0.001053,0.328471,1.205761,2.634638,778.91,15.00,highres
137.638676,9919266012,0.649313,0.004151,-9.731461,0.000609,0.000088,-0.000652,0.328471,1.205761,2.634638,778.91,15.00,highres
137.648849,9919270768,0.642756,0.005920,-9.733305,-0.000130,0.001132,-0.000830,0.318291,1.204467,2.632719,778.91,15.00,highres
137.659057,9919283696,0.632432,0.011068,-9.734750,-0.000157,0.000993,0.000114,0.307753,1.195076,2.628347,778.91,15.00,highres
137.667744,9919296008,0.641199,0.003583,-9.736697,-0.000302,0.000066,-0.000588,0.307753,1.195076,2.628347,778.91,15.00,highres
137.683124,9919306295,0.640944,0.004249,-9.740653,-0.000920,0.000701,0.000087,0.307753,1.195076,2.628347,778.91,15.00,highres
137.688623,9919313662,0.640748,0.005083,-9.734353,-0.000634,0.000627,-0.000524,0.307753,1.195076,2.628347,778.91,15.00,highres
137.698056,9919319071,0.643313,0.003044,-9.739011,0.000820,0.000826,-0.000694,0.307753,1.195076,2.628347,778.91,15.00,highres
137.713936,9919339113,0.628032,0.009871,-9.727957,-0.000748,0.000830,-0.000370,0.307753,1.195076,2.628347,778.91,15.00,highres
137.723652,9919344179,0.637300,0.009816,-9.721862,-0.001046,0.000826,-0.000219,0.307753,1.195076,2.628347,778.91,15.00,highres
137.735677,9919354642,0.652527,0.011048,-9.730171,0.000703,0.001652,-0.000177,0.307753,1.195076,2.628347,778.91,15.00,highres
137.737602,9919361122,0.643606,0.009341,-9.729720,-0.000496,0.001682,-0.000096,0.307753,1.195076,2.628347,778.90,15.00,highres
137.756783,9919378993,0.648381,0.009871,-9.731545,0.000030,0.000916,-0.000504,0.307753,1.195076,2.628347,778.90,15.00,highres
137.759982,9919383814,0.640879,0.011306,-9.717942,0.000176,0.000800,0.000203,0.307753,1.195076,2.628347,778.90,15.00,highres
137.767004,9919398309,0.640994,0.010601,-9.739197,-0.000666,0.001528,-0.000839,0.307753,1.195076,2.628347,778.90,15.00,highres
137.783496,9919404427,0.642325,0.007266,-9.740419,-0.000600,0.000521,-0.000219,0.307753,1.195076,2.628347,778.90,15.00,highres
137.791019,9919420961,0.636836,0.012690,-9.733207,-0.000740,0.001005,-0.000588,0.319942,1.202368,2.631242,778.90,15.00,highres
137.798879,9919431319,0.632269,0.019771,-9.723396,0.000245,0.001141,0.000471,0.323169,1.192569,2.644648,778.90,15.00,highres
137.818955,9919441257,0.638303,0.006975,-9.732471,0.000330,0.000826,-0.000527,0.323169,1.192569,2.644648,778.91,15.00,highres
137.823088,9919446459,0.641282,0.000601,-9.739619,0.000298,0.001009,-0.001013,0.323169,1.192569,2.644648,778.91,15.00,highres
137.836482,9919461508,0.639619,0.007579,-9.729611,0.000176,0.000930,-0.001135,0.323169,1.192569,2.644648,778.91,15.00,highres
137.840790,9919474521,0.634761,0.010395,-9.732142,-0.000301,0.000139,0.000048,0.323169,1.192569,2.644648,778.91,15.00,highres
137.848291,9919479382,0.633413,0.007477,-9.723767,0.000329,0.001285,-0.000064,0.323169,1.192569,2.644648,778.91,15.00,highres
137.859784,9919491667,0.641605,0.005891,-9.724373,0.000073,0.001844,-0.000219,0.323169,1.192569,2.644648,778.91,15.00,highres
137.875650,9919500973,0.651989,0.010586,-9.733242,0.000053,0.000949,-0.000588,0.323169,1.192569,2.644648,778.91,15.00,highres
137.882464,9919511215,0.639695,0.003824,-9.730565,0.000787,0.000709,0.000087,0.323169,1.192569,2.644648,778.91,15.00,highres
137.890069,9919523905,0.650775,0.012265,-9.725562,0.000499,0.000504,0.000104,0.323169,1.192569,2.644648,778.91,15.00,highres
137.897242,9919530099,0.639111,0.009091,-9.741013,0.000126,0.000492,0.000825,0.323169,1.192569,2.644648,778.91,15.00,highres
137.915568,9919541407,0.629836,0.002069,-9.727976,-0.000291,0.000215,-0.000974,0.323169,1.192569,2.644648,778.91,15.00,highres
137.922232,9919547342,0.638805,0.004386,-9.738730,0.000370,0.001548,-0.000719,0.323169,1.192569,2.644648,778.91,15.00,highres
137.935857,9919563609,0.639991,0.009894,-9.739903,-0.000284,0.000826,-0.000373,0.323169,1.192569,2.644648,778.91,15.00,highres
137.937626,9919569127,0.635954,0.011808,-9.729437,0.000457,0.002189,0.000227,0.319069,1.201852,2.630580,778.91,15.00,highres
137.948069,9919580188,0.638805,-0.000902,-9.729152,-0.000514,-0.000588,-0.001170,0.314950,1.213035,2.629345,778.91,15.00,highres
137.958477,9919591335,0.644790,0.001163,-9.732384,0.000031,0.000976,-0.000530,0.314950,1.213035,2.629345,778.91,15.00,highres
137.970194,9919598459,0.641144,0.010797,-9.730187,-0.000838,0.001048,-0.000941,0.314950,1.213035,2.629345,778.91,15.00,highres
137.983655,9919609606,0.640543,-0.001018,-9.734136,0.000954,0.000463,0.000392,0.314950,1.213035,2.629345,778.91,15.00,highres
137.990359,9919621764,0.634178,0.004392,-9.726092,0.000217,0.001037,-0.000436,0.314950,1.213035,2.629345,778.91,15.00,highres
137.997698,9919626622,0.636411,-0.003297,-9.738730,-0.000435,0.000215,-0.000219,0.314950,1.213035,2.629345,778.91,15.00,highres
138.014598,9919641545,0.638728,0.000100,-9.737107,-0.000156,0.000687,-0.000411,0.314950,1.213035,2.629345,778.91,15.00,highres
138.024007,9919647037,0.643711,0.006211,-9.740162,-0.000612,0.000907,-0.000090,0.314950,1.213035,2.629345,778.91,15.00,highres
138.036457,9919659002,0.634288,0.008292,-9.729424,0.000649,0.001437,-0.000830,0.314950,1.213035,2.629345,778.91,15.00,highres
138.038787,9919673789,0.642628,0.004465,-9.730119,-0.000567,0.000869,0.001219,0.314950,1.213035,2.629345,778.91,15.00,highres
138.056552,9919679397,0.641199,0.014659,-9.735138,-0.000740,0.000521,0.001003,0.314950,1.213035,2.629345,778.90,15.00,highres
138.058960,9919694116,0.634596,0.002978,-9.733074,-0.000319,0.001890,-0.000029,0.314950,1.213035,2.629345,778.90,15.00,highres
138.068172,9919699151,0.636411,0.006280,-9.730349,-0.000794,0.000880,-0.000082,0.314950,1.213035,2.629345,778.90,15.00,highres
138.083939,9919711737,0.644224,-0.005729,-9.732163,0.000176,0.001283,-0.000676,0.327288,1.206624,2.628625,778.90,15.00,highres
138.092310,9919722143,0.631332,0.016180,-9.738147,0.001166,0.000942,0.001077,0.316092,1.203284,2.649503,778.90,15.00,highres
138.103455,9919729286,0.626604,-0.000395,-9.728923,0.000016,0.000410,0.001357,0.316092,1.203284,2.649503,778.90,15.00,highres
138.117047,9919739317,0.643258,0.013111,-9.752072,0.000237,0.002048,-0.000341,0.316092,1.203284,2.649503,778.90,15.00,highres
138.122790,9919749124,0.636411,0.013462,-9.731546,-0.000740,0.002048,-0.000524,0.316092,1.203284,2.649503,778.90,15.00,highres
138.133416,9919759123,0.647363,0.008674,-9.739927,-0.000435,0.000521,-0.002968,0.316092,1.203284,2.649503,778.91,15.00,highres
138.144336,9919770985,0.643167,-0.000091,-9.715132,0.000022,0.000215,-0.000211,0.316092,1.203284,2.649503,778.91,15.00,highres
138.147943,9919781478,0.631883,0.005616,-9.742582,-0.001196,0.001729,0.000232,0.316092,1.203284,2.649503,778.91,15.00,highres
138.158198,9919791381,0.656121,0.006280,-9.725957,-0.000316,0.002048,0.000087,0.316092,1.203284,2.649503,778.91,15.00,highres
138.166792,9919798364,0.646628,0.003886,-9.728597,0.000192,0.001759,0.000601,0.316092,1.203284,2.649503,778.91,15.00,highres
138.186200,9919808528,0.635502,-0.000308,-9.731835,-0.000257,0.001728,-0.000510,0.316092,1.203284,2.649503,778.91,15.00,highres
138.189384,9919813433,0.637336,0.009613,-9.743654,-0.000435,0.001437,0.000087,0.316092,1.203284,2.649503,778.91,15.00,highres
138.198485,9919826932,0.640303,0.009971,-9.735038,-0.000375,0.000704,0.000118,0.316092,1.203284,2.649503,778.91,15.00,highres
138.214091,9919838358,0.635734,0.015214,-9.735661,-0.000156,0.000382,-0.000273,0.316092,1.203284,2.649503,778.90,15.00,highres
138.223100,9919843444,0.649578,0.015856,-9.739927,-0.000476,0.000786,-0.001044,0.318691,1.200782,2.634716,778.90,15.00,highres
138.236232,9919854444,0.630861,0.007096,-9.729915,-0.000303,0.000694,0.000087,0.315706,1.200426,2.619163,778.90,15.00,highres
138.237946,9919869275,0.636411,0.009871,-9.733940,-0.000306,0.002307,-0.000701,0.315706,1.200426,2.619163,778.90,15.00,highres
138.248733,9919878354,0.642396,0.005105,-9.747726,-0.000672,0.000589,-0.000389,0.315706,1.200426,2.619163,778.90,15.00,highres
138.259245,9919886339,0.639659,0.007807,-9.744708,-0.000929,0.000521,-0.000524,0.315706,1.200426,2.619163,778.90,15.00,highres
138.267259,9919898716,0.638805,0.012265,-9.736336,0.000588,0.002830,0.001216,0.315706,1.200426,2.619163,778.90,15.00,highres
138.282273,9919904292,0.635214,0.006280,-9.725562,0.000481,0.001132,-0.000219,0.315706,1.200426,2.619163,778.90,15.00,highres
138.288848,9919914273,0.644790,-0.004034,-9.728233,0.000481,0.001437,-0.000524,0.315706,1.200426,2.619163,778.90,15.00,highres
138.299170,9919921658,0.642396,0.005898,-9.732947,0.000059,0.001320,0.000392,0.315706,1.200426,2.619163,778.90,15.00,highres
138.316672,9919934612,0.640595,0.003282,-9.741682,-0.000313,0.000521,-0.001686,0.315706,1.200426,2.619163,778.90,15.00,highres
138.322489,9919944478,0.630537,0.004170,-9.736619,0.000314,0.000048,-0.000751,0.315706,1.200426,2.619163,778.90,15.00,highres
138.333270,9919949492,0.637872,0.007010,-9.736864,-0.000435,0.000215,0.000392,0.315706,1.200426,2.619163,778.90,15.00,highres
138.341610,9919959551,0.630557,0.006813,-9.725294,0.000397,0.001599,-0.001330,0.315706,1.200426,2.619163,778.90,15.00,highres
138.355982,9919969538,0.635487,0.009227,-9.746276,-0.000444,0.001612,0.000069,0.315706,1.200426,2.619163,778.90,15.00,highres
138.360210,9919979661,0.636780,0.005357,-9.732977,0.000528,0.001367,-0.000383,0.319148,1.207639,2.628148,778.90,15.00,highres
138.367219,9919991413,0.637700,0.006556,-9.728048,0.000180,0.001286,-0.000984,0.319920,1.190894,2.635593,778.91,15.00,highres
138.382108,9920001619,0.637856,0.006302,-9.740379,-0.000000,0.000169,-0.000431,0.319920,1.190894,2.635593,778.91,15.00,highres
138.389660,9920007016,0.646517,0.013718,-9.728623,0.001012,0.001791,-0.000139,0.319920,1.190894,2.635593,778.91,15.00,highres
138.398276,9920020413,0.642561,0.000487,-9.739471,0.000290,0.000769,0.000325,0.319920,1.190894,2.635593,778.91,15.00,highres
138.414220,9920024161,0.641022,0.006049,-9.734798,0.001012,0.000561,0.000006,0.319920,1.190894,2.635593,778.91,15.00,highres
138.422346,9920032175,0.640390,0.011100,-9.730090,-0.000508,0.000259,-0.000714,0.319920,1.190894,2.635593,778.91,15.00,highres
138.432247,9920059983,0.641838,0.013462,-9.747721,-0.000476,0.000604,-0.000046,0.319920,1.190894,2.635593,778.91,15.00,highres
138.432247,9920070121,0.637107,-0.004221,-9.735713,0.001265,0.000215,-0.000219,0.319920,1.190894,2.635593,778.91,15.00,highres
138.432247,9920079052,0.634655,0.001650,-9.734901,-0.000899,-0.000395,0.000245,0.319920,1.190894,2.635593,778.90,15.00,highres
138.432247,9920089918,0.640002,0.002689,-9.735137,0.000176,0.000826,0.000087,0.319920,1.190894,2.635593,778.90,15.00,highres
138.472747,9920099471,0.641260,0.014406,-9.730111,-0.001048,0.001771,0.000230,0.319920,1.190894,2.635593,778.90,15.00,highres
138.482220,9920112309,0.638767,0.011069,-9.731054,-0.000646,-0.000575,-0.000531,0.319920,1.190894,2.635593,778.90,15.00,highres
138.489034,9920122643,0.654951,-0.000710,-9.739433,0.000169,0.001895,-0.001576,0.319920,1.190894,2.635593,778.90,15.00,highres
138.497753,9920127109,0.639579,0.006473,-9.733255,0.000169,0.001106,-0.001024,0.320212,1.203273,2.628652,778.90,15.00,highres
138.514512,9920138410,0.645623,0.012619,-9.739950,-0.000747,0.001156,-0.000226,0.338715,1.198613,2.613409,778.90,15.00,highres
138.523540,9920149047,0.637104,0.001581,-9.743114,0.000002,0.001096,0.001469,0.338715,1.198613,2.613409,778.90,15.00,highres
138.536151,9920158816,0.646616,0.015503,-9.733977,0.000166,0.001613,-0.000378,0.338715,1.198613,2.613409,778.90,15.00,highres
138.537936,9920164930,0.633200,0.004779,-9.737990,0.000213,0.001504,-0.001099,0.338715,1.198613,2.613409,778.90,15.00,highres
138.556053,9920173891,0.640126,0.003564,-9.739757,-0.000028,0.001028,-0.000009,0.338715,1.198613,2.613409,778.90,15.00,highres
138.560190,9920184103,0.635176,0.011069,-9.721478,0.000169,-0.000663,-0.001884,0.338715,1.198613,2.613409,778.90,15.00,highres
138.568141,9920199304,0.639964,0.012266,-9.722675,-0.000007,0.001088,-0.000009,0.338715,1.198613,2.613409,778.90,15.00,highres
138.584358,9920204998,0.645949,0.007765,-9.722761,-0.000136,-0.000066,-0.000531,0.338715,1.198613,2.613409,778.90,15.00,highres
138.595991,9920219858,0.637199,0.000295,-9.733033,0.000323,-0.000001,-0.001054,0.338715,1.198613,2.613409,778.90,15.00,highres
138.598054,9920231694,0.638279,0.006281,-9.739161,0.000321,0.001154,0.000542,0.338715,1.198613,2.613409,778.90,15.00,highres
138.614729,9920236663,0.645950,0.009872,-9.721129,0.000619,0.000223,-0.000981,0.338715,1.198613,2.613409,778.90,15.00,highres
138.623631,9920251602,0.639389,0.004749,-9.737522,-0.001126,0.000923,-0.001374,0.338715,1.198613,2.613409,778.90,15.00,highres
138.632790,9920257232,0.637278,0.012399,-9.721930,-0.001373,0.000094,-0.000677,0.338715,1.198613,2.613409,778.90,15.00,highres
138.639977,9920267190,0.632938,0.015779,-9.741828,0.001022,0.001156,0.000172,0.324431,1.201746,2.632750,778.90,15.00,highres
138.651739,9920274081,0.646972,0.007989,-9.730892,-0.000636,0.001045,-0.000226,0.314444,1.201609,2.648137,778.90,15.00,highres
138.658809,9920283946,0.644075,0.009352,-9.738597,-0.000815,0.000748,-0.000107,0.314444,1.201609,2.648137,778.90,15.00,highres
138.677674,9920290131,0.637298,0.005791,-9.728877,0.000945,0.000759,0.000526,0.314444,1.201609,2.648137,778.90,15.00,highres
138.684407,9920311597,0.643902,0.009525,-9.735227,0.000094,0.000088,0.000310,0.314444,1.201609,2.648137,778.90,15.00,highres
138.694817,9920321959,0.646241,0.009419,-9.728660,0.000557,0.000508,-0.002281,0.314444,1.201609,2.648137,778.90,15.00,highres
138.697876,9920334610,0.639241,-0.006663,-9.725569,-0.000136,0.000643,-0.001277,0.314444,1.201609,2.648137,778.90,15.00,highres
138.716140,9920342080,0.644753,-0.000365,-9.733200,-0.000442,0.000935,-0.001006,0.314444,1.201609,2.648137,778.90,15.00,highres
138.723324,9920354008,0.635581,0.007478,-9.721391,-0.000442,0.002168,-0.000234,0.314444,1.201609,2.648137,778.90,15.00,highres
138.735362,9920359877,0.636693,0.010563,-9.721344,0.000522,0.002024,0.000032,0.314444,1.201609,2.648137,778.90,15.00,highres
138.737092,9920369543,0.644753,0.011316,-9.726017,0.000063,0.000408,-0.000500,0.314444,1.201609,2.648137,778.90,15.00,highres
138.748067,9920379883,0.630388,0.008675,-9.735844,-0.000747,0.000239,0.000691,0.314444,1.201609,2.648137,778.90,15.00,highres
138.759063,9920386946,0.637084,0.015857,-9.739434,0.000016,-0.000372,0.000003,0.314444,1.201609,2.648137,778.90,15.00,highres
138.766780,9920399240,0.640599,0.006424,-9.724998,-0.000702,0.000409,-0.000576,0.325103,1.203477,2.631562,778.91,15.00,highres
138.783285,9920409605,0.646031,0.014102,-9.732727,-0.000257,0.000871,-0.001142,0.325103,1.203477,2.631562,778.91,15.00,highres
138.795703,9920419864,0.641369,0.008356,-9.741077,0.000503,0.001824,-0.000226,0.326919,1.205679,2.634114,778.91,15.00,highres
138.797781,9920429852,0.639964,0.002689,-9.728661,-0.000136,0.000545,0.000385,0.326919,1.205679,2.634114,778.91,15.00,highres
138.814886,9920439325,0.643345,0.007583,-9.733343,0.000014,-0.000062,-0.000837,0.326919,1.205679,2.634114,778.91,15.00,highres
138.823494,9920451893,0.643134,0.014306,-9.733447,0.000466,0.001560,-0.000540,0.326919,1.205679,2.634114,778.91,15.00,highres
138.839070,9920464895,0.641251,0.021887,-9.733891,0.000184,0.001171,-0.000837,0.326919,1.205679,2.634114,778.91,15.00,highres
138.841783,9920469639,0.636560,0.004843,-9.736292,-0.001358,0.000545,-0.000226,0.326919,1.205679,2.634114,778.91,15.00,highres
138.856039,9920479681,0.644753,0.008675,-9.728660,-0.000442,0.000850,-0.000226,0.326919,1.205679,2.634114,778.91,15.00,highres
138.860197,9920492508,0.642838,0.016335,-9.733448,0.000475,0.000361,0.000080,0.326919,1.205679,2.634114,778.91,15.00,highres
138.875009,9920497283,0.638643,0.010121,-9.735556,-0.000136,0.001461,-0.000689,0.326919,1.205679,2.634114,778.91,15.00,highres
138.884412,9920501923,0.635176,0.008146,-9.725597,-0.000136,0.001461,-0.000531,0.326919,1.205679,2.634114,778.91,15.00,highres
138.890652,9920516815,0.633449,0.013836,-9.734428,-0.000304,0.000101,-0.000561,0.326919,1.205679,2.634114,778.91,15.00,highres
138.898195,9920527738,0.639183,0.006231,-9.729956,0.000780,0.000239,-0.000226,0.326919,1.205679,2.634114,778.91,15.00,highres
138.917889,9920533066,0.638253,-0.001243,-9.741828,0.000169,-0.000804,-0.000964,0.319491,1.201659,2.634484,778.91,15.00,highres
138.922856,9920540888,0.641161,0.008621,-9.744493,0.000169,0.002377,-0.000226,0.319491,1.201659,2.634484,778.91,15.00,highres
138.933006,9920551755,0.633374,0.009859,-9.732856,0.000169,0.001696,-0.000038,0.313776,1.204893,2.637218,778.90,15.00,highres
138.943843,9920562252,0.630390,0.011243,-9.728657,0.000013,0.000239,-0.001753,0.313776,1.204893,2.637218,778.90,15.00,highres
138.946649,9920571584,0.635608,0.012566,-9.727663,-0.000442,0.000545,-0.001049,0.313776,1.204893,2.637218,778.90,15.00,highres
138.958599,9920576566,0.639638,0.010090,-9.731925,-0.000442,0.000545,-0.000226,0.313776,1.204893,2.637218,778.90,15.00,highres
138.967307,9920590265,0.638692,0.001343,-9.729145,0.000665,0.000870,0.000500,0.313776,1.204893,2.637218,778.90,15.00,highres
138.982616,9920596063,0.641161,0.003313,-9.725979,0.000475,0.000535,0.000459,0.313776,1.204893,2.637218,778.90,15.00,highres
138.995604,9920619213,0.633168,-0.000050,-9.722714,0.000017,-0.000051,-0.000288,0.313776,1.204893,2.637218,778.90,15.00,highres
138.998139,9920629348,0.641429,0.010337,-9.738236,0.000248,0.000623,0.000272,0.313776,1.204893,2.637218,778.90,15.00,highres
139.013183,9920639256,0.634331,0.008675,-9.725463,0.000091,0.001328,-0.000359,0.313776,1.204893,2.637218,778.90,15.00,highres
139.023055,9920647995,0.645602,0.004736,-9.730323,0.000089,0.001043,-0.000917,0.313776,1.204893,2.637218,778.90,15.00,highres
139.036410,9920661885,0.641885,0.007087,-9.733809,-0.000442,0.001115,-0.000027,0.313776,1.204893,2.637218,778.90,15.00,highres
139.038036,9920667472,0.636373,0.006622,-9.734759,-0.000136,0.001661,-0.000837,0.313776,1.204893,2.637218,778.90,15.00,highres
139.047992,9920677034,0.638001,0.007190,-9.725163,-0.000055,-0.000147,-0.000899,0.321153,1.201781,2.632200,778.90,15.00,highres
139.058969,9920689087,0.638767,0.000295,-9.726265,-0.000442,0.001461,-0.001447,0.321153,1.201781,2.632200,778.90,15.00,highres
139.069695,9920699384,0.640050,0.001449,-9.733938,-0.000005,0.000766,-0.000879,0.315908,1.200964,2.642271,778.90,15.00,highres
139.082249,9920709630,0.632440,0.006195,-9.736226,-0.000136,0.000850,-0.000233,0.315908,1.200964,2.642271,778.90,15.00,highres
139.089439,9920719459,0.645949,0.008675,-9.728660,-0.000125,0.001766,-0.000373,0.315908,1.200964,2.642271,778.90,15.00,highres
139.102668,9920725188,0.638767,0.007478,-9.728659,-0.000136,0.000850,-0.000837,0.315908,1.200964,2.642271,778.90,15.00,highres
139.114731,9920739862,0.638042,0.010058,-9.730362,-0.000627,0.001646,-0.000837,0.315908,1.200964,2.642271,778.90,15.00,highres
139.123457,9920749798,0.639288,0.010238,-9.734591,0.000247,0.000773,-0.000951,0.315908,1.200964,2.642271,778.90,15.00,highres
139.135238,9920760382,0.634561,0.000888,-9.732834,-0.000442,0.001316,-0.001142,0.315908,1.200964,2.642271,778.90,15.00,highres
139.145356,9920770491,0.636373,0.001492,-9.733447,0.000169,0.001156,-0.001447,0.315908,1.200964,2.642271,778.90,15.00,highres
139.156183,9920780571,0.636376,0.001971,-9.726265,0.000048,0.002132,0.000263,0.315908,1.200964,2.642271,778.90,15.00,highres
139.158112,9920789730,0.632156,0.010157,-9.721023,-0.000015,0.000750,-0.000063,0.315908,1.200964,2.642271,778.90,15.00,highres
139.166633,9920799678,0.631585,0.014839,-9.725585,0.000431,0.000850,-0.001331,0.315908,1.200964,2.642271,778.90,15.00,highres
139.185320,9920810626,0.641888,0.016113,-9.735115,0.000928,0.001471,0.000099,0.315908,1.200964,2.642271,778.90,15.00,highres
139.196240,9920815045,0.635630,0.003226,-9.730310,-0.000198,0.001828,0.000325,0.322156,1.206117,2.630326,778.90,15.00,highres
139.198956,9920827385,0.633198,0.008284,-9.737380,0.001085,0.000239,-0.000531,0.322156,1.206117,2.630326,778.90,15.00,highres
139.217930,9920838403,0.644424,0.009902,-9.723482,-0.000442,0.000286,-0.000489,0.331039,1.211620,2.624039,778.90,15.00,highres
139.225112,9920850881,0.640658,0.011636,-9.735779,0.000075,0.002188,-0.000109,0.331039,1.211620,2.624039,778.90,15.00,highres
139.237563,9920856592,0.644271,0.013463,-9.732407,-0.000136,0.000623,-0.000753,0.331039,1.211620,2.624039,778.90,15.00,highres
139.239244,9920868249,0.634402,0.009370,-9.727772,-0.000268,0.000281,-0.000837,0.331039,1.211620,2.624039,778.90,15.00,highres
139.248422,9920872309,0.642896,0.010450,-9.735266,0.000126,0.001766,0.000123,0.331039,1.211620,2.624039,778.91,15.00,highres
139.265371,9920888102,0.635176,0.003886,-9.731054,-0.000603,0.001611,-0.000226,0.331039,1.211620,2.624039,778.91,15.00,highres
139.278592,9920902527,0.641161,0.006281,-9.735843,-0.000531,0.001170,-0.000550,0.331039,1.211620,2.624039,778.91,15.00,highres
139.283156,9920910112,0.636372,0.002975,-9.737949,0.000403,0.002261,-0.000603,0.331039,1.211620,2.624039,778.91,15.00,highres
139.290015,9920919854,0.634830,0.002350,-9.740119,0.000199,0.001629,-0.000699,0.331039,1.211620,2.624039,778.91,15.00,highres
139.298288,9920925867,0.644836,0.002773,-9.732250,0.000931,0.001620,-0.000832,0.331039,1.211620,2.624039,778.91,15.00,highres
139.315745,9920940545,0.643303,0.010240,-9.729565,-0.000281,0.001519,-0.000264,0.331039,1.211620,2.624039,778.91,15.00,highres
139.322882,9920950797,0.637570,0.006281,-9.728660,-0.000747,-0.000677,-0.000531,0.331039,1.211620,2.624039,778.91,15.00,highres
139.336411,9920963062,0.636968,0.011370,-9.727162,-0.001053,0.001156,0.000157,0.329422,1.206318,2.637149,778.91,15.00,highres
139.338039,9920972514,0.642622,0.004455,-9.733082,-0.000008,0.000998,0.000435,0.329422,1.206318,2.637149,778.91,15.00,highres
139.349454,9920980001,0.641326,0.013205,-9.727040,-0.000562,0.002192,-0.000967,0.330789,1.205025,2.640577,778.91,15.00,highres
139.358559,9920992448,0.648908,0.013531,-9.730831,0.000375,0.000680,-0.000226,0.330789,1.205025,2.640577,778.91,15.00,highres
139.367532,9920997968,0.645949,0.006281,-9.720226,-0.000912,0.000661,-0.000085,0.330789,1.205025,2.640577,778.91,15.00,highres
139.383883,9921013608,0.639484,-0.005690,-9.717075,-0.000124,0.000386,0.000373,0.330789,1.205025,2.640577,778.91,15.00,highres
139.393237,9921018131,0.620201,-0.000291,-9.740337,-0.000582,0.001907,0.000831,0.330789,1.205025,2.640577,778.91,15.00,highres
139.398672,9921030156,0.645658,0.010874,-9.734289,0.000348,0.001193,-0.000620,0.330789,1.205025,2.640577,778.91,15.00,highres
139.416488,9921035481,0.642506,0.004263,-9.729669,-0.000136,0.000545,-0.000226,0.330789,1.205025,2.640577,778.91,15.00,highres
139.423083,9921046033,0.640031,0.007411,-9.734212,0.000014,0.000545,-0.001442,0.330789,1.205025,2.640577,778.91,15.00,highres
139.437557,9921062918,0.644371,0.006636,-9.742668,0.000405,-0.000136,0.000010,0.330789,1.205025,2.640577,778.91,15.00,highres
139.437557,9921071654,0.644584,0.005252,-9.733278,-0.000636,0.000100,0.000274,0.330789,1.205025,2.640577,778.91,15.00,highres
139.437557,9921080593,0.638429,0.015857,-9.736841,-0.000136,0.000850,-0.000837,0.330789,1.205025,2.640577,778.91,15.00,highres
139.437557,9921092676,0.632047,0.009754,-9.723253,0.000263,0.001355,-0.000332,0.330789,1.205025,2.640577,778.91,15.00,highres
139.437557,9921098983,0.643034,0.006445,-9.738923,-0.000143,0.000591,0.000205,0.320608,1.201361,2.631351,778.91,15.00,highres
139.483895,9921103474,0.640990,0.009358,-9.742183,-0.000868,0.001337,-0.000748,0.320608,1.201361,2.631351,778.91,15.00,highres
139.490695,9921116231,0.631585,0.006280,-9.732265,-0.000533,0.000383,0.000741,0.315547,1.209870,2.629916,778.91,15.00,highres
139.498526,9921128454,0.640849,0.003391,-9.725396,-0.000054,0.000209,-0.000196,0.315547,1.209870,2.629916,778.91,15.00,highres
139.515608,9921138332,0.644724,0.011514,-9.723468,0.000142,0.000674,-0.000539,0.315547,1.209870,2.629916,778.91,15.00,highres
139.524969,9921143008,0.642928,0.014600,-9.723316,-0.000449,-0.000670,-0.001455,0.315547,1.209870,2.629916,778.91,15.00,highres
139.537818,9921148378,0.637098,0.007246,-9.736582,-0.000143,-0.000364,-0.001150,0.315547,1.209870,2.629916,778.91,15.00,highres
139.538632,9921160286,0.637570,-0.002100,-9.735856,0.000050,0.000857,-0.000233,0.315547,1.209870,2.629916,778.91,15.00,highres
139.556236,9921179963,0.636071,0.004179,-9.733002,-0.000087,0.000572,-0.000304,0.315547,1.209870,2.629916,778.91,15.00,highres
139.559811,9921188598,0.646206,0.004827,-9.729656,0.000588,0.000552,-0.000474,0.315547,1.209870,2.629916,778.91,15.00,highres
139.568333,9921197452,0.634885,0.001019,-9.737744,-0.001670,0.000552,-0.000539,0.315547,1.209870,2.629916,778.91,15.00,highres
139.581811,9921205624,0.649541,0.011068,-9.737053,-0.000811,-0.000183,-0.000448,0.315547,1.209870,2.629916,778.91,15.00,highres
139.596196,9921216168,0.644768,0.010850,-9.736805,-0.000075,0.000433,-0.001285,0.315547,1.209870,2.629916,778.91,15.00,highres
139.598093,9921222704,0.638169,0.010709,-9.726341,-0.000037,0.001575,-0.001256,0.315547,1.209870,2.629916,778.91,15.00,highres
139.614764,9921240380,0.632131,0.000946,-9.723234,0.000349,0.000365,-0.000913,0.319233,1.201498,2.635587,778.91,15.00,highres
139.623192,9921249053,0.641191,0.012958,-9.732389,0.000836,0.000983,-0.000965,0.319233,1.201498,2.635587,778.91,15.00,highres
139.635813,9921261457,0.641168,0.005678,-9.735556,-0.000143,-0.000290,0.000378,0.316318,1.209042,2.636126,778.91,15.00,highres
139.646684,9921266144,0.637570,0.010817,-9.738724,0.000853,0.001356,-0.000732,0.316318,1.209042,2.636126,778.91,15.00,highres
139.655701,9921280886,0.631745,0.010870,-9.730230,0.000162,0.001878,0.000040,0.316318,1.209042,2.636126,778.91,15.00,highres
139.658408,9921290695,0.645950,-0.009282,-9.740108,-0.000143,0.000906,0.000594,0.316318,1.209042,2.636126,778.91,15.00,highres
139.667910,9921299001,0.645124,0.006815,-9.728221,0.000031,0.000683,0.000246,0.316318,1.209042,2.636126,778.91,15.00,highres
139.682291,9921310264,0.634706,-0.001982,-9.736411,-0.000911,0.001014,0.000385,0.316318,1.209042,2.636126,778.91,15.00,highres
139.689276,9921316009,0.651489,0.005948,-9.737360,0.000614,0.000698,-0.000844,0.316318,1.209042,2.636126,778.91,15.00,highres
139.703440,9921329330,0.638767,0.008674,-9.737054,0.000255,-0.000758,-0.000782,0.316318,1.209042,2.636126,778.91,15.00,highres
139.718584,9921333271,0.644437,0.004586,-9.738589,-0.000331,0.001562,-0.000163,0.316318,1.209042,2.636126,778.91,15.00,highres
139.723486,9921343700,0.644264,0.003161,-9.737534,-0.000449,0.000180,-0.000910,0.316318,1.209042,2.636126,778.91,15.00,highres
139.732893,9921360838,0.635176,0.008674,-9.734661,-0.000654,0.000417,-0.000133,0.316318,1.209042,2.636126,778.91,15.00,highres
139.738462,9921372629,0.626148,0.008400,-9.720382,0.000346,0.003548,-0.000167,0.316318,1.209042,2.636126,778.91,15.00,highres
139.747464,9921379111,0.636504,0.001492,-9.719098,-0.000143,0.001163,0.000378,0.325364,1.203780,2.629667,778.91,15.00,highres
139.759615,9921389071,0.642829,0.001962,-9.732759,0.000011,0.000246,-0.000539,0.325364,1.203780,2.629667,778.91,15.00,highres
139.766518,9921400768,0.645142,0.013462,-9.731068,0.000773,0.001649,0.000807,0.327147,1.197873,2.620222,778.91,15.00,highres
139.785952,9921408855,0.639965,0.009871,-9.727476,-0.000672,-0.000282,-0.000433,0.327147,1.197873,2.620222,778.91,15.00,highres
139.790209,9921421395,0.633310,0.005417,-9.733294,-0.000069,0.000899,0.000767,0.327147,1.197873,2.620222,778.91,15.00,highres
139.797358,9921427006,0.637897,-0.004494,-9.726021,0.000850,0.000173,-0.000083,0.327147,1.197873,2.620222,778.91,15.00,highres
139.816180,9921435809,0.633979,0.004649,-9.732058,-0.000027,0.000202,-0.000494,0.327147,1.197873,2.620222,778.91,15.00,highres
139.823564,9921446452,0.645514,0.005844,-9.730307,-0.000449,0.001611,-0.000701,0.327147,1.197873,2.620222,778.91,15.00,highres
139.834489,9921453405,0.645105,0.003557,-9.731232,0.000291,0.002079,-0.001455,0.327147,1.197873,2.620222,778.91,15.00,highres
139.839175,9921460788,0.642972,0.009172,-9.737025,0.000176,0.001003,-0.001150,0.327147,1.197873,2.620222,778.91,15.00,highres
139.847699,9921478272,0.641162,0.005083,-9.737052,-0.001228,0.001163,-0.000065,0.327147,1.197873,2.620222,778.91,15.00,highres
139.858800,9921483118,0.643556,0.002223,-9.745435,-0.000438,0.000246,-0.000549,0.327147,1.197873,2.620222,778.91,15.00,highres
139.868050,9921490462,0.643863,0.002415,-9.728092,-0.000211,0.001044,-0.000098,0.327147,1.197873,2.620222,778.91,15.00,highres
139.883461,9921500313,0.640953,0.006384,-9.737054,-0.000074,-0.000129,-0.000530,0.327147,1.197873,2.620222,778.91,15.00,highres
139.894378,9921513104,0.639253,0.005795,-9.722721,0.000429,0.001163,0.000187,0.322571,1.204125,2.632037,778.91,15.00,highres
139.897945,9921529399,0.642094,0.002890,-9.726343,0.000612,0.001218,-0.000198,0.322571,1.204125,2.632037,778.91,15.00,highres
139.914630,9921536211,0.646570,0.000585,-9.736183,0.000630,0.001142,-0.000254,0.326670,1.201712,2.630817,778.91,15.00,highres
139.923294,9921546517,0.624906,0.012706,-9.730815,0.000371,0.000954,-0.000040,0.326670,1.201712,2.630817,778.91,15.00,highres
139.936676,9921558671,0.642081,0.012636,-9.737605,-0.000613,0.001163,-0.000844,0.326670,1.201712,2.630817,778.91,15.00,highres
139.939188,9921569400,0.641667,0.005216,-9.741656,0.000754,0.000930,-0.001150,0.326670,1.201712,2.630817,778.91,15.00,highres
139.957121,9921576167,0.646805,0.009443,-9.734343,-0.000088,0.000422,-0.001400,0.326670,1.201712,2.630817,778.91,15.00,highres
139.963511,9921589082,0.639965,0.010219,-9.727577,-0.000894,0.001711,-0.000564,0.326670,1.201712,2.630817,778.91,15.00,highres
139.968510,9921598954,0.633979,0.001492,-9.733463,0.000162,0.000246,-0.000233,0.326670,1.201712,2.630817,778.91,15.00,highres
139.981838,9921608973,0.640868,0.016443,-9.735652,-0.000090,0.000738,-0.000605,0.326670,1.201712,2.630817,778.91,15.00,highres
139.988960,9921621577,0.635885,0.016077,-9.736566,-0.000889,0.000857,-0.000624,0.326670,1.201712,2.630817,778.91,15.00,highres
140.002086,9921633206,0.640623,0.010409,-9.730826,-0.000449,0.001407,0.000041,0.326670,1.201712,2.630817,778.91,15.00,highres
140.014082,9921639438,0.628470,0.007953,-9.735053,-0.000612,0.001305,-0.000254,0.326670,1.201712,2.630817,778.91,15.00,highres
140.022713,9921650647,0.640200,0.009408,-9.742314,0.000468,0.001572,-0.001153,0.326670,1.201712,2.630817,778.91,15.00,highres
140.036222,9921662729,0.636621,0.005974,-9.737797,0.000162,0.001682,-0.000631,0.324365,1.201696,2.632290,778.91,15.00,highres
140.043554,9921673243,0.641986,0.008222,-9.729833,0.000362,0.002375,-0.000844,0.324365,1.201696,2.632290,778.91,15.00,highres
140.055985,9921683216,0.640300,0.015331,-9.727812,-0.000669,0.001358,-0.000795,0.324699,1.194443,2.628500,778.91,15.00,highres
140.060350,9921691285,0.636087,0.012213,-9.729168,-0.000103,0.000897,-0.001876,0.324699,1.194443,2.628500,778.91,15.00,highres
140.067988,9921696486,0.639820,0.001186,-9.724633,-0.000984,0.001769,-0.000539,0.324699,1.194443,2.628500,778.91,15.00,highres
140.084665,9921709865,0.633855,0.007850,-9.743699,-0.000006,0.000857,-0.000949,0.324699,1.194443,2.628500,778.91,15.00,highres
140.089054,9921721070,0.641573,-0.001707,-9.732210,0.000305,0.000428,-0.000520,0.324699,1.194443,2.628500,778.91,15.00,highres
140.097485,9921728762,0.638288,0.000536,-9.737299,0.000282,0.001229,-0.000287,0.324699,1.194443,2.628500,778.91,15.00,highres
140.113959,9921739349,0.634342,0.003789,-9.740827,0.000468,0.002079,-0.000844,0.324699,1.194443,2.628500,778.91,15.00,highres
140.123899,9921748938,0.640779,0.003121,-9.731832,-0.000003,0.000833,-0.000423,0.324699,1.194443,2.628500,778.91,15.00,highres
140.131463,9921758967,0.637623,0.010645,-9.736613,0.000292,0.001931,0.001433,0.324699,1.194443,2.628500,778.91,15.00,highres
140.138216,9921766958,0.626444,0.012549,-9.737760,-0.000187,0.000988,-0.000277,0.324699,1.194443,2.628500,778.91,15.00,highres
140.157645,9921776305,0.631900,0.008246,-9.735970,-0.000449,0.001468,-0.000844,0.324699,1.194443,2.628500,778.91,15.00,highres
140.160777,9921784290,0.637630,0.002674,-9.737054,-0.000114,0.000799,0.000072,0.324699,1.194443,2.628500,778.91,15.00,highres
140.170218,9921799102,0.643487,0.011490,-9.730577,-0.000449,0.001774,0.000683,0.321557,1.204181,2.633681,778.91,15.00,highres
140.183216,9921803229,0.646392,0.008310,-9.735076,0.000318,0.000863,0.000222,0.321557,1.204181,2.633681,778.91,15.00,highres
140.189474,9921813893,0.633979,0.011621,-9.729934,-0.000754,0.000246,-0.000539,0.321447,1.203703,2.639796,778.91,15.00,highres
140.199896,9921820159,0.635607,0.013738,-9.727477,-0.000143,-0.000070,-0.001206,0.321447,1.203703,2.639796,778.91,15.00,highres
140.216609,9921826710,0.647484,0.001154,-9.729873,-0.000166,-0.000059,-0.000867,0.321447,1.203703,2.639796,778.91,15.00,highres
140.223749,9921839270,0.638561,0.009787,-9.732966,-0.000247,0.000721,0.000241,0.321447,1.203703,2.639796,778.91,15.00,highres
140.228141,9921846832,0.644753,0.011239,-9.732093,0.000626,0.000563,-0.000222,0.321447,1.203703,2.639796,778.91,15.00,highres
140.247898,9921869213,0.636374,0.006280,-9.731071,-0.000472,0.000117,-0.000852,0.321447,1.203703,2.639796,778.91,15.00,highres
140.249907,9921878116,0.642769,0.006057,-9.728981,0.000408,0.001035,-0.000351,0.321447,1.203703,2.639796,778.91,15.00,highres
140.264830,9921887752,0.643258,0.005083,-9.720440,0.000468,-0.000059,-0.000539,0.321447,1.203703,2.639796,778.91,15.00,highres
140.275996,9921898660,0.648344,-0.000903,-9.740645,-0.000754,0.000246,-0.001455,0.321447,1.203703,2.639796,778.91,15.00,highres
140.281627,9921910429,0.639965,0.003627,-9.738509,0.000401,0.000791,-0.000300,0.321447,1.203703,2.639796,778.91,15.00,highres
140.289880,9921921287,0.641858,0.004693,-9.732572,-0.001840,0.000993,-0.000879,0.321447,1.203703,2.639796,778.92,15.00,highres
140.297704,9921930644,0.641935,0.009945,-9.733187,-0.000341,0.001873,-0.000943,0.321447,1.203703,2.639796,778.92,15.00,highres
140.315801,9921939123,0.638963,0.008479,-9.734342,-0.001294,-0.000319,0.000026,0.323190,1.199246,2.631343,778.92,15.00,highres
140.323419,9921949331,0.636373,0.009738,-9.733647,-0.000255,0.001325,-0.000427,0.323190,1.199246,2.631343,778.92,15.00,highres
140.336108,9921959548,0.642359,0.009871,-9.737054,0.000773,0.001774,-0.000539,0.321199,1.212418,2.644157,778.92,15.00,highres
140.339002,9921969463,0.641162,0.006280,-9.726280,-0.000143,0.000246,-0.000539,0.321199,1.212418,2.644157,778.92,15.00,highres
140.347849,9921980922,0.643556,0.010953,-9.724427,-0.000030,0.001120,-0.001036,0.321199,1.212418,2.644157,778.92,15.00,highres
140.359353,9921986724,0.644753,0.007477,-9.729871,0.000069,0.001069,-0.000339,0.321199,1.212418,2.644157,778.92,15.00,highres
140.367322,9922001871,0.641638,0.002445,-9.723398,0.000468,0.000345,0.000072,0.321199,1.212418,2.644157,778.91,15.00,highres
140.383518,9922009502,0.641794,0.007544,-9.737753,-0.000513,0.001468,0.000153,0.321199,1.212418,2.644157,778.91,15.00,highres
140.390411,9922021350,0.641987,0.005083,-9.731975,0.000624,0.000552,-0.000159,0.321199,1.212418,2.644157,778.91,15.00,highres
140.397672,9922031108,0.630789,0.003880,-9.733073,-0.000754,0.000246,-0.000756,0.321199,1.212418,2.644157,778.91,15.00,highres
140.413585,9922039073,0.644300,0.001699,-9.739240,0.000162,0.001468,-0.000872,0.321199,1.212418,2.644157,778.91,15.00,highres
140.422350,9922049642,0.634522,0.021694,-9.730562,0.000162,-0.001892,0.000072,0.321199,1.212418,2.644157,778.91,15.00,highres
140.436274,9922060850,0.637570,0.009871,-9.735857,0.000162,-0.000364,-0.000539,0.321199,1.212418,2.644157,778.91,15.00,highres
140.436274,9922069680,0.635627,0.006801,-9.737539,0.000858,0.000832,-0.000819,0.321199,1.212418,2.644157,778.91,15.00,highres
140.436274,9922076447,0.636821,-0.000354,-9.736954,0.000241,0.000971,-0.000731,0.318796,1.201413,2.629416,778.91,15.00,highres
140.436274,9922086825,0.631733,0.020196,-9.737354,-0.000029,-0.000059,-0.000539,0.318796,1.201413,2.629416,778.91,15.00,highres
140.476668,9922099212,0.636373,-0.000903,-9.720296,0.000167,0.001468,-0.000434,0.313470,1.199271,2.638653,778.91,15.00,highres
140.484328,9922103758,0.645240,0.000559,-9.726810,-0.000063,0.001549,-0.000458,0.313470,1.199271,2.638653,778.91,15.00,highres
140.490148,9922115259,0.644110,0.002068,-9.738585,-0.001284,-0.000046,-0.000931,0.313470,1.199271,2.638653,778.91,15.00,highres
140.498379,9922129526,0.642374,0.011065,-9.729008,0.000030,0.000870,-0.000541,0.313470,1.199271,2.638653,778.91,15.00,highres
140.515309,9922137850,0.639663,0.008085,-9.721874,0.000233,0.001095,-0.000466,0.313470,1.199271,2.638653,778.91,15.00,highres
140.522562,9922148630,0.630404,0.005080,-9.745767,0.000159,0.001786,-0.000541,0.313470,1.199271,2.638653,778.91,15.00,highres
140.535902,9922163206,0.638158,0.004401,-9.727400,-0.000147,0.000259,0.000300,0.313470,1.199271,2.638653,778.91,15.00,highres
140.537935,9922173174,0.630754,0.002686,-9.730350,0.000441,0.000870,-0.000760,0.313470,1.199271,2.638653,778.91,15.00,highres
140.557590,9922183770,0.644768,0.003883,-9.721826,0.000477,0.002251,0.000216,0.313470,1.199271,2.638653,778.91,15.00,highres
140.560144,9922189987,0.637098,0.011820,-9.730075,-0.000509,0.001051,-0.000485,0.313470,1.199271,2.638653,778.91,15.00,highres
140.566781,9922196668,0.638515,0.009600,-9.730597,-0.000112,0.002057,-0.000576,0.313470,1.199271,2.638653,778.91,15.00,highres
140.582638,9922209707,0.650248,0.013459,-9.741608,0.000520,0.001120,-0.000666,0.313470,1.199271,2.638653,778.91,15.00,highres
140.595552,9922221014,0.645966,0.006293,-9.729017,0.000464,0.001159,-0.000524,0.325205,1.203384,2.628617,778.91,15.00,highres
140.597361,9922228798,0.645628,0.011748,-9.731749,-0.000653,0.000975,-0.000246,0.325205,1.203384,2.628617,778.91,15.00,highres
140.614062,9922242021,0.637562,0.013206,-9.735223,0.000656,0.001289,-0.000428,0.306531,1.213260,2.637229,778.91,15.00,highres
140.623385,9922247132,0.642939,0.017546,-9.728170,0.000769,0.000207,-0.000218,0.306531,1.213260,2.637229,778.91,15.00,highres
140.633021,9922263736,0.639980,-0.003299,-9.736192,-0.000024,0.000503,0.000008,0.306531,1.213260,2.637229,778.91,15.00,highres
140.639273,9922273180,0.646074,0.000256,-9.734412,0.000927,0.001638,0.000218,0.306531,1.213260,2.637229,778.91,15.00,highres
140.653555,9922277411,0.641184,0.006557,-9.737988,-0.000701,0.001176,-0.001401,0.306531,1.213260,2.637229,778.91,15.00,highres
140.662142,9922289022,0.631601,0.006584,-9.728700,-0.000147,0.002397,-0.001458,0.306531,1.213260,2.637229,778.91,15.00,highres
140.675600,9922298554,0.630132,0.016125,-9.731834,-0.000912,0.000921,-0.001001,0.306531,1.213260,2.637229,778.91,15.00,highres
140.682100,9922303505,0.641499,0.021678,-9.728662,0.000159,0.002092,0.000070,0.306531,1.213260,2.637229,778.91,15.00,highres
140.697345,9922311607,0.643782,0.002332,-9.720486,-0.000059,-0.000003,-0.000061,0.306531,1.213260,2.637229,778.91,15.00,highres
140.701584,9922323878,0.642374,-0.002622,-9.722301,0.000159,0.000870,0.000070,0.306531,1.213260,2.637229,778.91,15.00,highres
140.714931,9922333845,0.639416,0.008249,-9.733163,-0.000065,0.002092,-0.000799,0.306531,1.213260,2.637229,778.91,15.00,highres
140.722473,9922346742,0.639568,0.012552,-9.723600,0.000328,-0.000013,-0.000541,0.306531,1.213260,2.637229,778.91,15.00,highres
140.737001,9922356219,0.642565,0.003380,-9.735999,-0.000799,0.001176,-0.001020,0.318044,1.205267,2.637404,778.91,15.00,highres
140.738585,9922361907,0.645965,0.002686,-9.731402,-0.000943,0.000685,-0.000847,0.318044,1.205267,2.637404,778.91,15.00,highres
140.749335,9922373519,0.643649,0.000292,-9.736399,-0.000606,0.000256,0.000224,0.326687,1.201685,2.633206,778.91,15.00,highres
140.758024,9922383976,0.639980,0.005080,-9.726614,-0.000727,0.000870,0.000039,0.326687,1.201685,2.633206,778.91,15.00,highres
140.777632,9922393346,0.641177,0.006277,-9.731402,0.000576,0.002188,0.000375,0.326687,1.201685,2.633206,778.91,15.00,highres
140.782716,9922404410,0.631601,0.009868,-9.730206,-0.000007,0.001621,0.001100,0.326687,1.201685,2.633206,778.90,15.00,highres
140.795961,9922414203,0.646629,0.013721,-9.734057,-0.000758,0.000870,-0.000236,0.326687,1.201685,2.633206,778.90,15.00,highres
140.797929,9922419620,0.633744,0.011780,-9.742175,-0.000333,0.001720,-0.000236,0.326687,1.201685,2.633206,778.90,15.00,highres
140.817707,9922428973,0.635946,0.012228,-9.736224,0.000238,0.001481,-0.000144,0.326687,1.201685,2.633206,778.90,15.00,highres
140.823044,9922438713,0.632739,0.006160,-9.741723,-0.000619,0.001935,-0.000393,0.326687,1.201685,2.633206,778.90,15.00,highres
140.833432,9922449712,0.641177,0.013459,-9.733797,-0.000002,0.000740,-0.000701,0.326687,1.201685,2.633206,778.90,15.00,highres
140.839580,9922460118,0.637586,0.005080,-9.729009,0.000159,0.001176,-0.001458,0.326687,1.201685,2.633206,778.90,15.00,highres
140.856472,9922470130,0.648726,0.014241,-9.720310,0.000464,0.000565,-0.000541,0.326687,1.201685,2.633206,778.90,15.00,highres
140.859503,9922480119,0.631601,0.013459,-9.733797,-0.000652,0.000471,-0.001164,0.326687,1.201685,2.633206,778.90,15.00,highres
140.875411,9922499774,0.636590,0.013027,-9.735657,-0.000912,0.000881,-0.000013,0.322132,1.203021,2.633269,778.90,15.00,highres
140.885664,9922510329,0.638739,0.009735,-9.734697,0.000601,0.000396,-0.000984,0.322132,1.203021,2.633269,778.90,15.00,highres
140.889663,9922522630,0.647357,0.000644,-9.729536,-0.000173,0.000777,-0.000634,0.322034,1.203184,2.618940,778.90,15.00,highres
140.898685,9922531501,0.634404,0.003626,-9.730129,0.000419,0.000520,-0.000497,0.322034,1.203184,2.618940,778.90,15.00,highres
140.915407,9922539760,0.642644,-0.011063,-9.741248,0.000277,0.001905,-0.001034,0.322034,1.203184,2.618940,778.90,15.00,highres
140.924284,9922544036,0.632430,0.008671,-9.736006,-0.000577,0.001194,-0.001601,0.322034,1.203184,2.618940,778.90,15.00,highres
140.933073,9922562363,0.639399,0.013459,-9.735006,0.000159,0.001789,0.000070,0.322034,1.203184,2.618940,778.90,15.00,highres
140.939009,9922574662,0.637486,0.002611,-9.733414,-0.000325,0.000616,-0.000057,0.322034,1.203184,2.618940,778.90,15.00,highres
140.955904,9922579892,0.632001,0.001092,-9.733097,0.000770,0.000259,-0.000541,0.322034,1.203184,2.618940,778.90,15.00,highres
140.960573,9922592275,0.639451,0.008646,-9.727824,-0.000150,0.000562,0.000375,0.322034,1.203184,2.618940,778.90,15.00,highres
140.967531,9922604454,0.635903,0.002274,-9.727884,0.000305,0.000126,-0.001311,0.322034,1.203184,2.618940,778.90,15.00,highres
140.981744,9922609890,0.635192,0.005080,-9.736191,0.000332,0.001316,-0.001590,0.322034,1.203184,2.618940,778.90,15.00,highres
140.989327,9922619973,0.638783,0.008161,-9.726497,0.000325,0.001509,0.000208,0.322034,1.203184,2.618940,778.90,15.00,highres
141.002313,9922631650,0.639708,0.003492,-9.729269,-0.000312,0.001695,0.000045,0.322034,1.203184,2.618940,778.90,15.00,highres
141.015698,9922644892,0.640331,0.010715,-9.726088,0.000114,-0.000478,-0.000325,0.321891,1.203562,2.631339,778.90,15.00,highres
141.023146,9922649753,0.637081,0.007286,-9.730898,0.000002,0.000884,-0.000548,0.321891,1.203562,2.631339,778.90,15.00,highres
141.036469,9922660288,0.639307,0.004556,-9.739187,0.000292,0.001214,-0.000541,0.328701,1.198829,2.614400,778.90,15.00,highres
141.041376,9922673382,0.635722,0.003883,-9.725946,0.000038,0.001297,-0.001336,0.328701,1.198829,2.614400,778.90,15.00,highres
141.056882,9922679089,0.631313,-0.000785,-9.737627,-0.000147,0.001289,-0.000428,0.328701,1.198829,2.614400,778.90,15.00,highres
141.060469,9922684261,0.637903,0.002729,-9.736595,-0.000566,0.000948,-0.000655,0.328701,1.198829,2.614400,778.90,15.00,highres
141.066720,9922697018,0.637166,0.001629,-9.738337,0.000159,0.001588,-0.000434,0.328701,1.198829,2.614400,778.90,15.00,highres
141.086549,9922709715,0.651373,0.004502,-9.730823,-0.000452,0.000102,-0.000994,0.328701,1.198829,2.614400,778.90,15.00,highres
141.091498,9922717188,0.649839,-0.003931,-9.728515,-0.000072,0.000985,-0.000657,0.328701,1.198829,2.614400,778.91,15.00,highres
141.098527,9922721942,0.641990,-0.004835,-9.733457,-0.000452,0.000259,-0.000541,0.328701,1.198829,2.614400,778.91,15.00,highres
141.116008,9922732607,0.631684,-0.000432,-9.735785,0.000464,0.000870,-0.000541,0.328701,1.198829,2.614400,778.91,15.00,highres
141.123975,9922744555,0.626813,0.011137,-9.729930,-0.000452,0.001118,-0.000417,0.328701,1.198829,2.614400,778.91,15.00,highres
141.133788,9922756984,0.641783,0.007444,-9.745768,0.000265,0.000750,0.000361,0.328701,1.198829,2.614400,778.91,15.00,highres
141.139599,9922763557,0.643280,0.006308,-9.742760,0.000010,0.000722,-0.000236,0.328701,1.198829,2.614400,778.91,15.00,highres
141.147304,9922774723,0.634671,0.002583,-9.736969,-0.000624,0.000737,-0.001591,0.323921,1.205560,2.629725,778.91,15.00,highres
141.160978,9922786988,0.638783,0.006277,-9.731402,0.000152,0.001273,-0.000236,0.323921,1.205560,2.629725,778.91,15.00,highres
141.168181,9922798761,0.622494,0.003625,-9.726378,-0.000079,0.001005,-0.000660,0.323312,1.197590,2.625677,778.91,15.00,highres
141.182729,9922812345,0.637391,0.000023,-9.734529,0.000387,0.000985,0.000165,0.323312,1.197590,2.625677,778.91,15.00,highres
141.195576,9922821646,0.633995,0.002006,-9.732974,0.000159,0.002092,-0.000847,0.323312,1.197590,2.625677,778.91,15.00,highres
141.197971,9922828198,0.631460,0.011957,-9.726614,-0.000488,0.001310,-0.000505,0.323312,1.197590,2.625677,778.91,15.00,highres
141.213665,9922833258,0.641732,0.001489,-9.730205,-0.001063,0.002092,-0.000236,0.323312,1.197590,2.625677,778.91,15.00,highres
141.223439,9922845455,0.641685,0.014579,-9.734941,-0.000315,0.000349,-0.000404,0.323312,1.197590,2.625677,778.91,15.00,highres
141.232054,9922855055,0.641158,0.009024,-9.723709,-0.000027,0.001720,0.000747,0.323312,1.197590,2.625677,778.91,15.00,highres
141.248338,9922864735,0.636389,0.002647,-9.730042,0.000769,0.000259,0.000375,0.323312,1.197590,2.625677,778.91,15.00,highres
141.256007,9922877940,0.637278,0.007440,-9.730787,0.000904,0.001616,-0.000371,0.323312,1.197590,2.625677,778.91,15.00,highres
141.259566,9922884351,0.637463,0.004174,-9.730865,0.000322,0.001645,-0.001070,0.323312,1.197590,2.625677,778.91,15.00,highres
141.275760,9922894331,0.637472,0.009255,-9.743344,-0.000416,0.000565,-0.000106,0.323312,1.197590,2.625677,778.91,15.00,highres
141.283160,9922904567,0.635937,0.008074,-9.728707,-0.000144,0.001789,0.000524,0.327218,1.203678,2.632898,778.91,15.00,highres
141.290801,9922916844,0.633377,-0.000364,-9.738005,-0.000162,0.000865,-0.000842,0.327218,1.203678,2.632898,778.91,15.00,highres
141.297683,9922932920,0.643571,0.003883,-9.731402,-0.000386,0.000852,-0.000771,0.327218,1.203678,2.632898,778.91,15.00,highres
141.315341,9922942177,0.639775,0.008628,-9.740277,0.000285,0.000565,0.000070,0.326564,1.200429,2.626270,778.91,15.00,highres
141.322967,9922947217,0.643460,0.000292,-9.741953,-0.000611,0.000410,-0.000696,0.326564,1.200429,2.626270,778.91,15.00,highres
141.334796,9922959440,0.630858,0.008836,-9.730658,-0.000487,0.000565,-0.000236,0.326564,1.200429,2.626270,778.91,15.00,highres
141.347746,9922969886,0.637801,0.008456,-9.725968,-0.001063,-0.000093,-0.001505,0.326564,1.200429,2.626270,778.91,15.00,highres
141.350127,9922977387,0.642741,0.014189,-9.739180,-0.000571,0.001108,-0.000660,0.326564,1.200429,2.626270,778.91,15.00,highres
141.359975,9922981990,0.645519,0.007028,-9.737997,-0.000147,0.001176,0.000070,0.326564,1.200429,2.626270,778.91,15.00,highres
141.371772,9922994371,0.639047,0.011951,-9.722855,-0.000146,0.000565,-0.000644,0.326564,1.200429,2.626270,778.91,15.00,highres
141.382003,9923005533,0.644436,0.002295,-9.736748,-0.001025,0.001176,-0.001286,0.326564,1.200429,2.626270,778.91,15.00,highres
141.390606,9923014588,0.639976,0.003091,-9.728602,0.000464,0.001786,-0.000236,0.326564,1.200429,2.626270,778.91,15.00,highres
141.398499,9923024947,0.628781,0.011680,-9.745735,0.000159,0.001786,-0.001152,0.326564,1.200429,2.626270,778.91,15.00,highres
141.415241,9923030315,0.636189,0.004604,-9.744094,0.000049,0.000956,-0.001128,0.326564,1.200429,2.626270,778.90,15.00,highres
141.423023,9923050402,0.643681,0.005350,-9.733862,0.000056,0.001293,-0.000119,0.318109,1.204361,2.629468,778.90,15.00,highres
141.432570,9923062215,0.643511,0.011939,-9.729006,-0.000028,0.000838,-0.000117,0.318109,1.204361,2.629468,778.90,15.00,highres
141.438347,9923068419,0.637485,0.002635,-9.733694,0.000145,-0.000843,-0.000090,0.318109,1.204361,2.629468,778.90,15.00,highres
141.447059,9923080458,0.644419,0.009021,-9.735168,-0.000553,0.002096,-0.000746,0.316998,1.203557,2.630747,778.90,15.00,highres
141.447059,9923084606,0.641069,0.011174,-9.745006,-0.000488,-0.000181,-0.001152,0.316998,1.203557,2.630747,778.90,15.00,highres
141.447059,9923104896,0.634719,0.007997,-9.725044,-0.000297,0.001481,-0.000847,0.316998,1.203557,2.630747,778.90,15.00,highres
141.447059,9923110478,0.642374,0.005080,-9.739781,0.000159,0.000565,-0.002068,0.316998,1.203557,2.630747,778.90,15.00,highres
141.490187,9923120260,0.641503,0.011643,-9.734340,-0.000810,0.001365,-0.000851,0.316998,1.203557,2.630747,778.90,15.00,highres
141.499838,9923130090,0.641172,0.002686,-9.730129,0.000462,0.000882,-0.000545,0.316998,1.203557,2.630747,778.92,15.00,highres
141.515966,9923139650,0.639961,0.009086,-9.727748,-0.000954,0.001492,-0.000545,0.316998,1.203557,2.630747,778.92,15.00,highres
141.523461,9923152291,0.640461,0.007295,-9.749723,0.001074,-0.000035,-0.001004,0.316998,1.203557,2.630747,778.92,15.00,highres
141.536306,9923163625,0.635887,-0.005399,-9.733629,-0.000633,0.001187,0.000497,0.316998,1.203557,2.630747,778.92,15.00,highres
141.539038,9923168964,0.644520,0.003641,-9.742747,-0.001902,0.000656,-0.000851,0.316998,1.203557,2.630747,778.92,15.00,highres
141.557138,9923179952,0.633990,-0.002102,-9.732523,0.000020,0.000576,-0.001088,0.316998,1.203557,2.630747,778.92,15.00,highres
141.560184,9923189551,0.644267,0.009869,-9.738466,0.000157,0.001187,-0.000240,0.329142,1.206016,2.628585,778.92,15.00,highres
141.575841,9923199475,0.637957,0.005442,-9.731688,-0.000454,0.000681,-0.000956,0.329142,1.206016,2.628585,778.92,15.00,highres
141.582547,9923210154,0.639012,0.000067,-9.739210,-0.000698,0.000271,0.000249,0.329142,1.206016,2.628585,778.92,15.00,highres
141.596058,9923220317,0.639396,0.009842,-9.722933,-0.000763,0.000429,0.000062,0.317867,1.199797,2.637892,778.92,15.00,highres
141.598098,9923229849,0.651387,0.010161,-9.741487,-0.000074,0.001954,-0.000172,0.317867,1.199797,2.637892,778.92,15.00,highres
141.613458,9923235415,0.637517,0.010913,-9.724167,-0.000454,0.001931,0.001765,0.317867,1.199797,2.637892,778.92,15.00,highres
141.622628,9923248905,0.634709,0.005080,-9.728580,-0.000454,0.000393,-0.000759,0.317867,1.199797,2.637892,778.92,15.00,highres
141.636820,9923260425,0.648388,0.010088,-9.735826,-0.000317,0.001630,-0.000851,0.317867,1.199797,2.637892,778.92,15.00,highres
141.641741,9923265852,0.638256,0.011219,-9.737096,-0.000290,0.000138,-0.001603,0.317867,1.199797,2.637892,778.92,15.00,highres
141.648017,9923280170,0.643882,0.017200,-9.723728,0.000203,0.000011,-0.000500,0.317867,1.199797,2.637892,778.91,15.00,highres
141.666978,9923292464,0.637643,-0.002832,-9.740639,-0.000223,0.001757,-0.000620,0.317867,1.199797,2.637892,778.91,15.00,highres
141.676011,9923300315,0.637662,0.004069,-9.729760,-0.000454,0.001352,-0.001039,0.317867,1.199797,2.637892,778.91,15.00,highres
141.683108,9923310439,0.642311,0.002686,-9.733514,-0.000663,-0.000772,-0.000948,0.317867,1.199797,2.637892,778.91,15.00,highres
141.690723,9923320329,0.647983,0.004848,-9.723991,-0.000321,0.000443,0.000104,0.317867,1.199797,2.637892,778.91,15.00,highres
141.698503,9923333198,0.634560,0.007493,-9.736096,0.000768,0.000106,0.000211,0.324156,1.203921,2.634466,778.91,15.00,highres
141.714735,9923339622,0.639738,0.008961,-9.731853,-0.001397,-0.000174,-0.000213,0.324156,1.203921,2.634466,778.91,15.00,highres
141.724569,9923349822,0.637929,0.014112,-9.739706,0.000246,0.000437,0.000371,0.324156,1.203921,2.634466,778.91,15.00,highres
141.732341,9923362644,0.629240,0.018325,-9.735457,0.000134,0.000979,-0.001462,0.322159,1.203267,2.635134,778.91,15.00,highres
141.747698,9923368861,0.635469,0.006802,-9.732807,0.000173,-0.000612,-0.000995,0.322159,1.203267,2.635134,778.91,15.00,highres
141.756497,9923372374,0.638778,0.004000,-9.727386,-0.000631,0.000448,-0.001156,0.322159,1.203267,2.635134,778.91,15.00,highres
141.761555,9923392406,0.633666,0.000098,-9.726699,-0.000586,-0.000250,-0.000719,0.322159,1.203267,2.635134,778.91,15.00,highres
141.766903,9923402840,0.634403,0.017550,-9.737681,-0.000454,0.000282,-0.001967,0.322159,1.203267,2.635134,778.91,15.00,highres
141.790685,9923420704,0.637581,0.015099,-9.726253,-0.000233,0.000882,-0.000019,0.322159,1.203267,2.635134,778.91,15.00,highres
141.799740,9923429866,0.648714,0.001807,-9.737470,0.000768,0.001105,-0.001024,0.322159,1.203267,2.635134,778.91,15.00,highres
141.813372,9923436768,0.644157,-0.001413,-9.730293,-0.000058,0.001683,0.000264,0.322159,1.203267,2.635134,778.91,15.00,highres
141.822495,9923447711,0.643952,-0.000638,-9.736617,-0.000554,0.000070,-0.000343,0.322159,1.203267,2.635134,778.91,15.00,highres
141.831467,9923459668,0.647157,-0.004496,-9.732523,-0.000330,0.002059,0.000246,0.322159,1.203267,2.635134,778.91,15.00,highres
141.838447,9923465098,0.637581,0.003883,-9.725341,-0.000149,0.002409,-0.000545,0.324057,1.203324,2.630387,778.91,15.00,highres
141.846716,9923475441,0.639975,-0.003299,-9.739706,0.000311,0.001490,0.000065,0.324057,1.203324,2.630387,778.91,15.00,highres
141.858595,9923489371,0.638778,0.013460,-9.736115,0.000140,0.001283,-0.001270,0.324057,1.203324,2.630387,778.91,15.00,highres
141.865857,9923499948,0.641355,0.006831,-9.738880,0.000345,0.000271,-0.001297,0.331951,1.211724,2.642220,778.91,15.00,highres
141.882105,9923510444,0.631049,0.002070,-9.729582,0.000330,0.000244,-0.000400,0.331951,1.211724,2.642220,778.91,15.00,highres
141.890486,9923520338,0.630688,0.011561,-9.725753,0.000030,0.000249,0.000192,0.331951,1.211724,2.642220,778.92,15.00,highres
141.897855,9923525668,0.634957,0.002441,-9.723898,-0.000615,-0.000374,-0.001479,0.331951,1.211724,2.642220,778.92,15.00,highres
141.913829,9923530507,0.634945,0.002592,-9.730560,-0.000454,-0.000035,-0.001767,0.331951,1.211724,2.642220,778.92,15.00,highres
141.922786,9923546169,0.636384,0.003883,-9.732522,-0.000146,-0.000189,-0.000851,0.331951,1.211724,2.642220,778.92,15.00,highres
141.932897,9923558146,0.637581,0.008672,-9.722946,-0.000200,0.001060,-0.000062,0.331951,1.211724,2.642220,778.92,15.00,highres
141.939200,9923570110,0.637799,0.005116,-9.736983,0.000314,-0.000109,-0.000323,0.331951,1.211724,2.642220,778.92,15.00,highres
141.948447,9923575831,0.643566,0.006277,-9.739705,-0.000454,-0.000035,-0.000545,0.331951,1.211724,2.642220,778.92,15.00,highres
141.963881,9923588542,0.649280,0.002686,-9.741254,0.000462,0.000015,-0.000851,0.331951,1.211724,2.642220,778.92,15.00,highres
141.965654,9923597649,0.639621,0.007141,-9.725828,-0.000316,0.000911,-0.000378,0.331951,1.211724,2.642220,778.92,15.00,highres
141.982243,9923608994,0.634252,0.000292,-9.718159,0.000008,0.001322,-0.000403,0.325124,1.204007,2.631832,778.91,15.00,highres
141.990557,9923618674,0.640173,0.002983,-9.737761,-0.000300,0.000881,-0.000700,0.325124,1.204007,2.631832,778.91,15.00,highres
141.997767,9923625688,0.641493,0.013781,-9.727618,0.000262,0.000776,-0.000430,0.325124,1.204007,2.631832,778.91,15.00,highres
142.013413,9923635916,0.636931,0.007474,-9.744926,-0.000592,0.000950,-0.000713,0.327477,1.196597,2.639783,778.91,15.00,highres
142.022805,9923650477,0.635872,0.002349,-9.732706,-0.000589,0.000271,-0.000716,0.327477,1.196597,2.639783,778.91,15.00,highres
142.031981,9923660887,0.644046,0.009287,-9.731873,-0.000454,0.000419,-0.000851,0.327477,1.196597,2.639783,778.91,15.00,highres
142.047826,9923673955,0.639300,0.008672,-9.731312,-0.000191,0.001229,0.000065,0.327477,1.196597,2.639783,778.91,15.00,highres
142.049652,9923680586,0.627591,-0.000535,-9.732231,-0.000647,0.000961,-0.000240,0.327477,1.196597,2.639783,778.91,15.00,highres
142.058855,9923685906,0.633590,-0.003698,-9.730867,0.000169,-0.000499,-0.000387,0.327477,1.196597,2.639783,778.92,15.00,highres
142.064987,9923696559,0.643205,0.008393,-9.732688,-0.000149,0.000060,0.000332,0.327477,1.196597,2.639783,778.92,15.00,highres
142.081452,9923708398,0.626807,0.005080,-9.739706,-0.000149,0.000561,-0.000240,0.327477,1.196597,2.639783,778.92,15.00,highres
142.089693,9923713583,0.634875,0.015769,-9.737854,0.000462,0.001064,-0.000363,0.327477,1.196597,2.639783,778.92,15.00,highres
142.096935,9923723115,0.640644,0.002298,-9.727487,0.000308,0.000738,0.000378,0.327477,1.196597,2.639783,778.92,15.00,highres
142.106408,9923738314,0.629872,0.000883,-9.734916,0.000342,0.001121,-0.000611,0.327477,1.196597,2.639783,778.92,15.00,highres
142.123154,9923750412,0.645960,0.009216,-9.731708,0.000698,0.000881,-0.000288,0.319144,1.198213,2.626586,778.92,15.00,highres
142.131767,9923760904,0.645770,0.007720,-9.716146,-0.000197,0.001364,0.000065,0.319144,1.198213,2.626586,778.92,15.00,highres
142.137450,9923766165,0.648525,0.000465,-9.735604,-0.000612,0.001809,0.000055,0.319144,1.198213,2.626586,778.91,15.00,highres
142.147735,9923775945,0.640996,0.000336,-9.728441,0.000020,0.001524,-0.000408,0.314127,1.205921,2.641979,778.91,15.00,highres
142.158886,9923789279,0.637685,0.011706,-9.727838,0.000390,-0.000428,-0.001172,0.314127,1.205921,2.641979,778.91,15.00,highres
142.169442,9923797827,0.637265,0.013902,-9.735928,0.000028,0.001058,0.000017,0.314127,1.205921,2.641979,778.91,15.00,highres
142.182806,9923810400,0.651069,0.008672,-9.739705,0.000157,0.001456,-0.000680,0.314127,1.205921,2.641979,778.91,15.00,highres
142.189496,9923816856,0.638924,0.008138,-9.728673,-0.000302,0.001646,-0.000088,0.314127,1.205921,2.641979,778.91,15.00,highres
142.196963,9923828558,0.645177,-0.002102,-9.737032,0.000462,0.000799,-0.000123,0.314127,1.205921,2.641979,778.91,15.00,highres
142.209067,9923838570,0.642369,0.004490,-9.728901,-0.000905,0.000430,-0.000390,0.314127,1.205921,2.641979,778.91,15.00,highres
142.223517,9923846072,0.637441,0.010459,-9.739862,0.000002,0.000842,-0.000545,0.314127,1.205921,2.641979,778.91,15.00,highres
142.232591,9923859633,0.652808,0.002200,-9.728932,-0.000397,0.000576,-0.000793,0.314127,1.205921,2.641979,778.91,15.00,highres
142.240261,9923866010,0.637807,0.008703,-9.733137,-0.000760,-0.000486,-0.000545,0.314127,1.205921,2.641979,778.91,15.00,highres
142.248022,9923878118,0.647907,0.003137,-9.729830,0.000462,0.002409,-0.000240,0.314127,1.205921,2.641979,778.91,15.00,highres
142.258686,9923888842,0.646203,0.008041,-9.732653,0.000006,0.001338,-0.000545,0.325516,1.201296,2.629775,778.91,15.00,highres
142.264364,9923896156,0.633893,-0.000282,-9.731062,0.000383,0.000057,-0.000771,0.325516,1.201296,2.629775,778.91,15.00,highres
142.282223,9923908655,0.644162,0.003525,-9.727133,-0.000056,0.000789,-0.001128,0.325516,1.201296,2.629775,778.91,15.00,highres
142.290234,9923918430,0.629802,0.003875,-9.744485,0.000598,0.000271,-0.001631,0.315793,1.199111,2.640892,778.91,15.00,highres
142.297759,9923929906,0.639299,0.016478,-9.736688,0.000279,0.001125,-0.001216,0.315793,1.199111,2.640892,778.91,15.00,highres
142.304464,9923936101,0.640689,0.006992,-9.723814,-0.000292,0.001778,0.000065,0.315793,1.199111,2.640892,778.91,15.00,highres
142.323055,9923946239,0.642369,0.003217,-9.729070,-0.000454,0.000271,0.000676,0.315793,1.199111,2.640892,778.91,15.00,highres
142.335356,9923951634,0.643566,0.005701,-9.730394,0.000768,0.000955,-0.000335,0.315793,1.199111,2.640892,778.91,15.00,highres
142.338515,9923961116,0.650598,0.008220,-9.734997,-0.000047,0.000983,0.000473,0.315793,1.199111,2.640892,778.91,15.00,highres
142.346637,9923973263,0.646332,0.007102,-9.711308,-0.000168,0.000881,-0.000762,0.315793,1.199111,2.640892,778.91,15.00,highres
142.359300,9923986126,0.642369,-0.002102,-9.728931,-0.000627,0.000138,-0.000851,0.315793,1.199111,2.640892,778.91,15.00,highres
142.364626,9923990967,0.638649,-0.002845,-9.732750,-0.000454,0.000881,-0.000545,0.315793,1.199111,2.640892,778.91,15.00,highres
142.382697,9924000864,0.634941,0.003249,-9.715589,-0.000454,0.000921,0.000065,0.315793,1.199111,2.640892,778.91,15.00,highres
142.389813,9924013528,0.642788,-0.005930,-9.739285,-0.000262,0.001658,-0.000877,0.315793,1.199111,2.640892,778.91,15.00,highres
142.397259,9924031458,0.641739,0.012808,-9.741447,0.000608,-0.000345,-0.000399,0.326427,1.207439,2.630136,778.91,15.00,highres
142.414361,9924040869,0.642369,0.004392,-9.725123,-0.000562,0.000684,-0.001048,0.326427,1.207439,2.630136,778.91,15.00,highres
142.423500,9924048315,0.638030,0.006277,-9.743443,-0.000856,0.001902,-0.000545,0.326427,1.207439,2.630136,778.91,15.00,highres
142.433244,9924059947,0.647867,0.015366,-9.745378,-0.000330,0.000090,0.000246,0.325380,1.206743,2.626720,778.91,15.00,highres
142.439912,9924069352,0.644323,0.007686,-9.740782,-0.000022,-0.000283,-0.001404,0.325380,1.206743,2.626720,778.91,15.00,highres
142.439912,9924078244,0.644421,0.005764,-9.730299,-0.001186,0.000144,-0.000851,0.325380,1.206743,2.626720,778.90,15.00,highres
142.439912,9924083692,0.646654,0.018439,-9.727926,-0.000149,0.000576,-0.001462,0.325380,1.206743,2.626720,778.90,15.00,highres
142.439912,9924100917,0.647905,0.002686,-9.737236,0.000307,0.001415,-0.000701,0.325380,1.206743,2.626720,778.90,15.00,highres
142.483588,9924111613,0.643277,0.006938,-9.715393,0.000631,0.001492,0.000065,0.325380,1.206743,2.626720,778.90,15.00,highres
142.492136,9924116754,0.638105,0.007325,-9.723920,-0.000066,0.001299,-0.001239,0.325380,1.206743,2.626720,778.90,15.00,highres
142.498026,9924126360,0.642191,0.022929,-9.731141,0.000542,0.001721,-0.000701,0.325380,1.206743,2.626720,778.90,15.00,highres
142.514042,9924132185,0.642712,0.004119,-9.726480,0.000157,0.000885,0.000370,0.325380,1.206743,2.626720,778.90,15.00,highres
142.523283,9924143888,0.640242,0.008368,-9.736878,-0.000204,-0.000162,-0.000361,0.325380,1.206743,2.626720,778.90,15.00,highres
142.533526,9924153648,0.643564,0.013461,-9.735208,0.000462,0.000460,-0.001604,0.325380,1.206743,2.626720,778.90,15.00,highres
142.537592,9924164620,0.632905,0.010736,-9.723598,0.000329,0.001420,-0.000240,0.326330,1.205530,2.631531,778.90,15.00,highres
142.546713,9924171075,0.639499,0.002918,-9.739428,0.000439,0.000697,-0.000851,0.326330,1.205530,2.631531,778.90,15.00,highres
142.558855,9924182983,0.639960,0.012264,-9.744200,-0.000270,-0.000153,-0.000607,0.326330,1.205530,2.631531,778.90,15.00,highres
142.565888,9924193113,0.641811,0.004207,-9.726033,0.000026,0.001495,-0.000546,0.318713,1.197832,2.628098,778.90,15.00,highres
142.582580,9924197809,0.641840,-0.006206,-9.734455,0.000157,0.000274,-0.001462,0.318713,1.197832,2.628098,778.90,15.00,highres
142.590181,9924209668,0.629187,0.007476,-9.737019,0.000016,0.000603,-0.001181,0.318713,1.197832,2.628098,778.90,15.00,highres
142.597602,9924223397,0.647142,0.010631,-9.729836,0.000171,0.000274,-0.000678,0.318713,1.197832,2.628098,778.90,15.00,highres
142.604745,9924230105,0.632919,0.001900,-9.730371,0.000039,0.000791,-0.000746,0.318713,1.197832,2.628098,778.90,15.00,highres
142.623214,9924241410,0.653748,0.010447,-9.738661,-0.001619,0.000210,-0.000361,0.318713,1.197832,2.628098,778.90,15.00,highres
142.632932,9924252218,0.633229,0.009870,-9.722651,-0.000454,0.001660,-0.000146,0.318713,1.197832,2.628098,778.90,15.00,highres
142.638826,9924263268,0.634771,0.010271,-9.741812,0.000265,0.001673,-0.000851,0.318713,1.197832,2.628098,778.90,15.00,highres
142.648656,9924276146,0.644748,0.005082,-9.732229,-0.000454,0.001871,0.000506,0.318713,1.197832,2.628098,778.90,15.00,highres
142.658671,9924283115,0.639960,0.001491,-9.734623,0.000223,0.001202,-0.000492,0.318713,1.197832,2.628098,778.90,15.00,highres
142.669289,9924295750,0.639755,0.004876,-9.733923,-0.000459,0.001040,0.000220,0.318713,1.197832,2.628098,778.90,15.00,highres
142.682705,9924309132,0.632778,0.003885,-9.732230,-0.000815,0.000579,-0.000879,0.322871,1.203879,2.631793,778.90,15.00,highres
142.690638,9924318223,0.637494,0.010786,-9.741879,-0.000919,0.000885,-0.000851,0.322871,1.203879,2.631793,778.90,15.00,highres
142.703218,9924330906,0.647452,-0.000467,-9.735961,-0.001169,0.000989,-0.001053,0.322871,1.203879,2.631793,778.90,15.00,highres
142.706468,9924336303,0.630384,0.007476,-9.737019,-0.001353,0.001351,0.000048,0.327134,1.200369,2.634140,778.90,15.00,highres
142.722799,9924347373,0.645795,0.008673,-9.746744,-0.000268,0.001376,-0.000360,0.327134,1.200369,2.634140,778.90,15.00,highres
142.733318,9924359976,0.642354,0.007476,-9.731033,-0.000454,0.001600,-0.000208,0.327134,1.200369,2.634140,778.90,15.00,highres
142.739652,9924364790,0.628350,0.006099,-9.732528,-0.000454,0.000274,0.000370,0.327134,1.200369,2.634140,778.90,15.00,highres
142.749752,9924373950,0.643652,0.004634,-9.737220,0.000593,0.000914,-0.000110,0.327134,1.200369,2.634140,778.90,15.00,highres
142.758982,9924391568,0.643551,0.005082,-9.733427,-0.001065,-0.000436,-0.000059,0.327134,1.200369,2.634140,778.90,15.00,highres
142.766093,9924396663,0.646613,-0.003297,-9.739044,-0.002090,0.001173,-0.000780,0.327134,1.200369,2.634140,778.90,15.00,highres
142.781618,9924406146,0.650043,-0.002051,-9.689827,-0.000454,0.001190,-0.000240,0.327134,1.200369,2.634140,778.91,15.00,highres
142.791250,9924416644,0.649093,-0.005750,-9.739044,0.000901,0.000840,0.000240,0.327134,1.200369,2.634140,778.91,15.00,highres
142.799086,9924427049,0.622021,-0.004800,-9.749731,0.000731,0.000078,0.000260,0.327134,1.200369,2.634140,778.91,15.00,highres
142.813349,9924433529,0.637089,-0.004062,-9.737971,-0.000906,0.001959,-0.000399,0.327134,1.200369,2.634140,778.91,15.00,highres
142.822568,9924449725,0.633458,0.016998,-9.732394,-0.003373,-0.000407,0.000065,0.320897,1.205440,2.637567,778.91,15.00,highres
142.832279,9924461976,0.637566,0.003885,-9.737018,-0.002117,0.001043,-0.001304,0.320897,1.205440,2.637567,778.91,15.00,highres
142.839856,9924469939,0.644776,0.003849,-9.724422,0.000106,0.000179,-0.000030,0.320897,1.205440,2.637567,778.91,15.00,highres
142.846756,9924473864,0.639782,-0.005781,-9.735624,0.000005,0.000579,0.000370,0.320069,1.202023,2.640243,778.91,15.00,highres
142.860105,9924483618,0.649643,0.012888,-9.729212,-0.000045,0.000308,-0.001358,0.320069,1.202023,2.640243,778.91,15.00,highres
142.865407,9924491120,0.644220,0.010134,-9.732493,0.000431,0.000716,0.000065,0.320069,1.202023,2.640243,778.91,15.00,highres
142.882518,9924503687,0.635882,0.002726,-9.745359,-0.000176,0.001023,0.000037,0.320069,1.202023,2.640243,778.91,15.00,highres
142.889492,9924519631,0.645600,-0.002020,-9.724195,0.000134,-0.000242,-0.000546,0.320069,1.202023,2.640243,778.91,15.00,highres
142.898097,9924528943,0.642354,0.007476,-9.732231,-0.000454,0.000274,-0.000240,0.320069,1.202023,2.640243,778.91,15.00,highres
142.913836,9924538885,0.648731,0.015476,-9.734221,0.000658,0.002387,-0.000521,0.320069,1.202023,2.640243,778.91,15.00,highres
142.920048,9924544865,0.643203,0.017915,-9.729488,0.000157,-0.000054,0.000348,0.320069,1.202023,2.640243,778.91,15.00,highres
142.931825,9924556436,0.638323,-0.006994,-9.723428,-0.000176,0.000302,-0.000712,0.320069,1.202023,2.640243,778.91,15.00,highres
142.938586,9924570112,0.640535,-0.001789,-9.736444,-0.001176,0.001748,0.000341,0.320069,1.202023,2.640243,778.92,15.00,highres
142.947760,9924574944,0.633975,-0.005692,-9.731033,-0.000454,0.002106,-0.001157,0.320069,1.202023,2.640243,778.92,15.00,highres
142.961432,9924584988,0.654321,0.009998,-9.726964,-0.001706,0.001053,-0.000271,0.320712,1.205028,2.634685,778.92,15.00,highres
142.965151,9924598828,0.645919,-0.008840,-9.742978,-0.001462,-0.000032,-0.001141,0.320712,1.205028,2.634685,778.92,15.00,highres
142.981754,9924608632,0.636688,0.014419,-9.725128,-0.001314,-0.000499,-0.000889,0.320712,1.205028,2.634685,778.92,15.00,highres
142.988670,9924618919,0.639661,0.009871,-9.725946,0.000767,0.001954,0.000599,0.322496,1.201259,2.626493,778.92,15.00,highres
142.998300,9924626856,0.639847,0.007724,-9.725048,-0.000595,0.000343,-0.000100,0.322496,1.201259,2.626493,778.92,15.00,highres
143.014065,9924638779,0.631837,0.002042,-9.729890,-0.000532,0.001810,-0.001148,0.322496,1.201259,2.626493,778.92,15.00,highres
143.023861,9924649487,0.643572,0.000212,-9.726811,-0.000609,0.000735,-0.000396,0.322496,1.201259,2.626493,778.92,15.00,highres
143.033739,9924658522,0.639387,0.000259,-9.733394,-0.000631,0.001126,-0.000369,0.322496,1.201259,2.626493,778.92,15.00,highres
143.038008,9924670254,0.647142,0.015855,-9.733427,0.000768,0.002209,-0.001154,0.322496,1.201259,2.626493,778.92,15.00,highres
143.046910,9924674349,0.657679,0.004913,-9.717072,0.000881,0.000954,-0.001349,0.322496,1.201259,2.626493,778.92,15.00,highres
143.059768,9924689468,0.643837,0.013479,-9.734338,-0.000531,0.001190,-0.001385,0.322496,1.201259,2.626493,778.92,15.00,highres
143.065610,9924698798,0.662270,0.011189,-9.720157,0.000852,0.000553,-0.000435,0.322496,1.201259,2.626493,778.92,15.00,highres
143.082140,9924704988,0.647837,0.008043,-9.731912,0.000929,-0.000176,-0.000851,0.322496,1.201259,2.626493,778.92,15.00,highres
143.090558,9924722984,0.636929,0.010666,-9.726044,0.000079,0.000579,-0.000773,0.322496,1.201259,2.626493,778.92,15.00,highres
143.103983,9924728882,0.637289,0.017541,-9.733216,0.000215,-0.000089,0.000198,0.320656,1.204644,2.630041,778.92,15.00,highres
143.105641,9924734216,0.642354,0.008584,-9.745309,0.000508,-0.000422,-0.000500,0.320656,1.204644,2.630041,778.92,15.00,highres
143.123933,9924744853,0.640564,0.005092,-9.720271,0.000768,0.001826,-0.000991,0.320656,1.204644,2.630041,778.92,15.00,highres
143.132338,9924757910,0.635172,0.003885,-9.735822,0.000157,0.002106,-0.000851,0.326085,1.200339,2.631667,778.92,15.00,highres
143.139805,9924770624,0.644388,0.013917,-9.736278,0.000602,0.001050,-0.000459,0.326085,1.200339,2.631667,778.92,15.00,highres
143.148002,9924776878,0.636369,0.009042,-9.736136,-0.000101,-0.000243,-0.001204,0.326085,1.200339,2.631667,778.92,15.00,highres
143.158972,9924789543,0.639671,0.007009,-9.747373,-0.000029,0.000647,-0.000945,0.326085,1.200339,2.631667,778.92,15.00,highres
143.168309,9924798896,0.641985,0.011895,-9.729835,-0.000143,0.000119,-0.001457,0.326085,1.200339,2.631667,778.92,15.00,highres
143.182951,9924804001,0.638763,0.000337,-9.736953,-0.000454,0.000274,-0.000240,0.326085,1.200339,2.631667,778.92,15.00,highres
143.189728,9924817002,0.636245,0.011907,-9.731156,-0.000148,0.001694,-0.000835,0.326085,1.200339,2.631667,778.92,15.00,highres
143.197119,9924828067,0.637169,0.009076,-9.733292,0.000938,0.001563,-0.000682,0.326085,1.200339,2.631667,778.92,15.00,highres
143.208003,9924838683,0.656758,0.017171,-9.729757,-0.000599,0.002407,-0.000085,0.326085,1.200339,2.631667,778.92,15.00,highres
143.223943,9924851407,0.633403,0.006632,-9.738107,0.000357,0.001912,0.000171,0.326085,1.200339,2.631667,778.92,15.00,highres
143.231934,9924859172,0.647361,0.010560,-9.734554,0.000462,0.001886,-0.000286,0.326085,1.200339,2.631667,778.92,15.00,highres
143.237785,9924872418,0.641288,0.004387,-9.728640,-0.000131,0.001083,-0.000059,0.317385,1.205864,2.633858,778.92,15.00,highres
143.248850,9924876736,0.618911,0.007476,-9.722747,-0.000024,0.001860,-0.000365,0.317385,1.205864,2.633858,778.92,15.00,highres
143.259202,9924887631,0.638268,0.013577,-9.743325,-0.000454,0.001301,-0.000865,0.317385,1.205864,2.633858,778.92,15.00,highres
143.265320,9924899668,0.643940,0.001942,-9.730644,0.000457,0.000983,-0.001265,0.313679,1.206946,2.643160,778.92,15.00,highres
143.282265,9924904021,0.634512,0.009920,-9.733428,-0.000311,0.000152,-0.001177,0.313679,1.206946,2.643160,778.92,15.00,highres
143.289924,9924914238,0.632174,0.005158,-9.728409,0.000243,0.000885,-0.000107,0.313679,1.206946,2.643160,778.92,15.00,highres
143.297624,9924930096,0.640702,0.009129,-9.731224,0.000596,0.001190,-0.001500,0.313679,1.206946,2.643160,778.92,15.00,highres
143.313372,9924939810,0.631776,0.005600,-9.727281,-0.000481,0.001482,-0.001143,0.313679,1.206946,2.643160,778.92,15.00,highres
143.322458,9924944192,0.636893,0.005670,-9.741113,0.000544,0.001495,-0.000370,0.313679,1.206946,2.643160,778.92,15.00,highres
143.334958,9924951212,0.635504,-0.001022,-9.741569,-0.000759,-0.000171,-0.001147,0.313679,1.206946,2.643160,778.92,15.00,highres
143.338091,9924969594,0.643672,0.018667,-9.736897,0.000020,0.000549,-0.000515,0.313679,1.206946,2.643160,778.92,15.00,highres
143.347959,9924975105,0.634049,0.001214,-9.731107,0.000049,0.001477,-0.001246,0.313679,1.206946,2.643160,778.92,15.00,highres
143.358277,9924982437,0.643551,0.001212,-9.737559,0.000274,0.000722,-0.000734,0.313679,1.206946,2.643160,778.92,15.00,highres
143.372830,9924996301,0.651046,0.007034,-9.737460,-0.000759,0.001760,-0.000085,0.313679,1.206946,2.643160,778.92,15.00,highres
143.382872,9925010216,0.636418,0.007402,-9.731032,0.000157,0.001343,0.000371,0.321288,1.198597,2.628974,778.92,15.00,highres
143.389950,9925019215,0.639359,0.017626,-9.724441,-0.001072,0.000430,-0.000858,0.321288,1.198597,2.628974,778.92,15.00,highres
143.398776,9925023797,0.642987,0.009579,-9.731939,0.000191,0.000681,-0.001191,0.321288,1.198597,2.628974,778.92,15.00,highres
143.404300,9925036345,0.645246,-0.002764,-9.729426,-0.001676,-0.000032,0.000065,0.307109,1.200795,2.636653,778.92,15.00,highres
143.423770,9925047103,0.644387,0.012015,-9.742167,0.000673,-0.001154,-0.000340,0.307109,1.200795,2.636653,778.91,15.00,highres
143.431858,9925057583,0.641157,0.012264,-9.735821,-0.000454,0.000274,-0.000240,0.307109,1.200795,2.636653,778.91,15.00,highres
143.437535,9925070747,0.636369,0.007413,-9.728701,-0.000532,-0.000634,-0.001070,0.307109,1.200795,2.636653,778.91,15.00,highres
143.448072,9925076866,0.640689,0.016688,-9.725360,-0.000361,-0.001573,-0.001064,0.307109,1.200795,2.636653,778.91,15.00,highres
143.448072,9925082384,0.633641,0.001452,-9.737684,0.000194,0.001557,-0.001120,0.307109,1.200795,2.636653,778.91,15.00,highres
143.448072,9925099970,0.632620,0.008101,-9.734729,-0.000600,0.001641,-0.000851,0.307109,1.200795,2.636653,778.91,15.00,highres
143.448072,9925110845,0.644748,0.009324,-9.753781,-0.000710,0.000885,-0.000053,0.307109,1.200795,2.636653,778.91,15.00,highres
143.489771,9925116982,0.629567,0.006564,-9.715682,0.000451,0.000579,-0.000029,0.307109,1.200795,2.636653,778.91,15.00,highres
143.502724,9925127472,0.640613,-0.007977,-9.733534,-0.001370,0.001495,0.000774,0.307109,1.200795,2.636653,778.91,15.00,highres
143.513802,9925136825,0.645315,0.006276,-9.750328,-0.000146,0.001491,0.000374,0.307109,1.200795,2.636653,778.91,15.00,highres
143.522993,9925147243,0.652778,-0.004972,-9.721309,0.000998,0.001222,-0.000274,0.325285,1.206924,2.631335,778.91,15.00,highres
143.532282,9925152741,0.645370,0.007473,-9.731765,0.000029,0.000139,0.000214,0.325285,1.206924,2.631335,778.91,15.00,highres
143.539366,9925164539,0.635568,-0.002755,-9.726177,0.000159,0.000575,-0.001153,0.325285,1.206924,2.631335,778.91,15.00,highres
143.547778,9925170129,0.635707,0.013005,-9.725922,-0.000618,0.001213,-0.001625,0.330536,1.197423,2.629702,778.91,15.00,highres
143.558227,9925182092,0.630979,-0.014004,-9.732119,-0.001209,0.000416,0.000374,0.330536,1.197423,2.629702,778.91,15.00,highres
143.564591,9925190142,0.642315,0.011986,-9.731993,-0.000881,0.000393,-0.000972,0.330536,1.197423,2.629702,778.91,15.00,highres
143.583031,9925203200,0.643766,0.006879,-9.727388,0.000007,0.000422,-0.000695,0.330536,1.197423,2.629702,778.92,15.00,highres
143.589711,9925213989,0.631542,0.009436,-9.731738,-0.000801,-0.000253,-0.000673,0.330536,1.197423,2.629702,778.92,15.00,highres
143.598482,9925224478,0.629148,0.007211,-9.745061,-0.000669,0.001098,-0.000543,0.330536,1.197423,2.629702,778.92,15.00,highres
143.605132,9925229450,0.637452,0.014581,-9.738531,0.000182,0.000669,-0.001553,0.330536,1.197423,2.629702,778.92,15.00,highres
143.622904,9925242827,0.647957,0.001157,-9.732519,-0.000277,-0.000126,-0.000062,0.330536,1.197423,2.629702,778.92,15.00,highres
143.633208,9925252325,0.632739,0.012261,-9.734231,-0.000873,0.000080,-0.000806,0.330536,1.197423,2.629702,778.92,15.00,highres
143.639490,9925264625,0.641118,0.009486,-9.735428,0.000266,-0.000143,0.000679,0.330536,1.197423,2.629702,778.92,15.00,highres
143.647231,9925270371,0.634181,0.008425,-9.730166,-0.000275,0.000269,0.000068,0.330536,1.197423,2.629702,778.92,15.00,highres
143.660874,9925284892,0.639921,0.007473,-9.740215,-0.000452,0.000969,-0.000848,0.328726,1.205822,2.630681,778.91,15.00,highres
143.664520,9925294460,0.638863,0.024443,-9.717894,-0.000452,0.001324,-0.000433,0.328726,1.205822,2.630681,778.91,15.00,highres
143.682246,9925299792,0.637506,0.007489,-9.711486,-0.000864,0.001006,-0.001153,0.328726,1.205822,2.630681,778.91,15.00,highres
143.692806,9925310081,0.629376,0.023823,-9.714110,0.001381,0.001185,-0.001153,0.322594,1.210720,2.636935,778.91,15.00,highres
143.698763,9925319421,0.612655,0.020373,-9.743671,0.000301,0.000035,-0.000112,0.322594,1.210720,2.636935,778.91,15.00,highres
143.714149,9925330531,0.637527,0.013458,-9.743806,0.000159,-0.001564,-0.001153,0.322594,1.210720,2.636935,778.91,15.00,highres
143.724191,9925339809,0.627951,0.017589,-9.748174,0.000159,0.001185,0.000374,0.322594,1.210720,2.636935,778.91,15.00,highres
143.732997,9925344683,0.636197,0.013991,-9.737289,0.000967,0.001687,0.000985,0.322594,1.210720,2.636935,778.91,15.00,highres
143.739301,9925358314,0.646443,0.000621,-9.724777,-0.000894,0.000680,-0.000406,0.322594,1.210720,2.636935,778.91,15.00,highres
143.747999,9925363967,0.645377,0.003215,-9.728203,-0.000671,0.001405,0.000508,0.322594,1.210720,2.636935,778.91,15.00,highres
