t_wall_s,t_boot_us,ax,ay,az,gx,gy,gz,mx,my,mz,abs_pressure,temperature,source
2.253856,66641889296,5.497936,-0.944599,-8.009343,-0.033131,0.003110,-0.009385,0.024369,1.062114,2.583571,782.05,40.40,highres
2.253856,66641912256,5.474257,-0.987207,-8.151412,0.000440,0.005114,-0.002250,0.024369,1.062114,2.583571,782.05,40.40,highres
2.253856,66641931903,5.495542,-0.912188,-8.127310,-0.011419,0.049659,0.001047,0.024369,1.062114,2.583571,782.05,40.40,highres
2.253856,66641951120,5.496734,-0.921033,-7.906839,-0.001797,0.041671,0.016698,0.024369,1.062114,2.583571,782.05,40.40,highres
2.253856,66641971003,5.586420,-0.968522,-7.842776,0.013294,0.022643,0.001747,0.024369,1.062114,2.583571,782.05,40.20,highres
2.253856,66641994513,5.623771,-0.979902,-7.905885,-0.004321,-0.011470,-0.015518,0.024759,1.062278,2.582843,782.05,40.20,highres
2.253856,66642012615,5.599685,-0.905096,-7.983008,-0.005952,-0.028195,-0.027711,0.028247,1.062325,2.584484,782.05,40.20,highres
2.254295,66642034040,5.470946,-0.778209,-8.070598,0.017676,-0.013591,-0.024826,0.028247,1.062325,2.584484,782.05,40.20,highres
2.254295,66642051256,5.473310,-0.836010,-8.102283,-0.028488,-0.014516,-0.010737,0.028247,1.062325,2.584484,782.05,40.00,highres
2.254295,66642066720,5.434898,-0.798559,-8.052485,-0.034052,-0.019948,0.003443,0.028247,1.062325,2.584484,782.05,40.00,highres
2.254295,66642092442,5.447443,-0.872776,-8.075253,0.004162,-0.001345,0.006803,0.028247,1.062325,2.584484,782.05,40.00,highres
2.254295,66642116192,5.428629,-0.860287,-8.056437,-0.011386,-0.005529,0.012722,0.028247,1.062325,2.584484,782.05,40.00,highres
2.254295,66642132687,5.468056,-0.851025,-8.084718,-0.003614,0.001014,0.024819,0.019900,1.067758,2.579796,782.05,40.00,highres
2.254295,66642148689,5.491371,-0.918228,-8.052111,-0.002555,0.006282,0.028734,0.029104,1.063107,2.589943,782.05,40.00,highres
2.254295,66642171799,5.579079,-1.001743,-8.010995,-0.029423,-0.002247,0.031095,0.029104,1.063107,2.589943,782.05,40.00,highres
2.254397,66642181691,5.580346,-1.042971,-7.993090,-0.021235,-0.006276,0.026434,0.029104,1.063107,2.589943,782.05,40.00,highres
2.254397,66642212239,5.567756,-0.984882,-8.016183,0.016329,0.008137,-0.007102,0.029104,1.063107,2.589943,782.06,40.00,highres
2.254397,66642231068,5.533616,-0.874768,-8.005065,0.002715,-0.003582,0.007916,0.029104,1.063107,2.589943,782.06,40.00,highres
2.254397,66642248798,5.500008,-0.886219,-7.988256,0.005349,-0.007120,0.018715,0.029104,1.063107,2.589943,782.06,40.00,highres
2.254397,66642268747,5.469005,-0.966940,-8.059525,0.006495,-0.004983,0.017799,0.024552,1.065461,2.582735,782.06,40.00,highres
2.254397,66642291805,5.471676,-0.996727,-7.984960,0.010330,0.004107,0.014197,0.026840,1.063753,2.591965,782.07,40.00,highres
2.254397,66642314760,5.570487,-0.904318,-7.865028,0.043500,0.002868,0.000376,0.026840,1.063753,2.591965,782.07,40.00,highres
2.254397,66642332317,5.587143,-0.892629,-7.925086,0.045379,-0.035169,-0.002924,0.026840,1.063753,2.591965,782.07,40.00,highres
2.254397,66642354627,5.455121,-0.782121,-8.129505,0.016227,-0.065046,0.006368,0.026840,1.063753,2.591965,782.07,40.00,highres
2.254484,66642369820,5.385413,-0.884746,-8.290649,0.015123,-0.044688,0.019326,0.026840,1.063753,2.591965,782.08,40.00,highres
2.254484,66642397088,5.335244,-1.091317,-8.321308,-0.005389,0.004748,0.031005,0.026840,1.063753,2.591965,782.08,40.00,highres
2.254484,66642408677,5.363867,-1.132535,-8.295439,-0.008090,0.018842,0.041012,0.021881,1.063710,2.582878,782.08,40.00,highres
2.254484,66642436525,5.630121,-1.251647,-8.065751,-0.022132,0.058851,0.040255,0.040755,1.064584,2.588725,782.08,40.00,highres
2.254484,66642455367,5.768479,-1.151321,-7.841493,-0.021112,0.055271,0.017159,0.040755,1.064584,2.588725,782.08,40.00,highres
2.254484,66642472559,5.720644,-0.927316,-7.561611,0.002036,0.022503,0.010644,0.040755,1.064584,2.588725,782.08,40.00,highres
2.254484,66642494582,5.716032,-1.118182,-7.704350,0.020837,-0.030514,-0.015001,0.040755,1.064584,2.588725,782.08,40.00,highres
2.254484,66642511933,5.601286,-0.982692,-7.805554,0.002293,-0.063479,-0.051539,0.040755,1.064584,2.588725,782.08,40.00,highres
2.254484,66642535420,5.401519,-0.786855,-7.983735,0.027224,-0.082562,-0.033063,0.040755,1.064584,2.588725,782.07,40.00,highres
2.254562,66642556867,5.371573,-1.021814,-8.337950,0.007368,-0.077782,-0.019228,0.027844,1.059777,2.584193,782.07,40.00,highres
2.254562,66642574414,5.317070,-1.043484,-8.401494,-0.004825,-0.047844,-0.022244,0.019868,1.063360,2.591594,782.07,40.00,highres
2.254562,66642594264,5.375141,-0.973071,-8.409370,0.015581,-0.000273,-0.019302,0.019868,1.063360,2.591594,782.07,40.00,highres
2.254562,66642610363,5.435074,-0.944654,-8.365481,-0.000456,0.020058,-0.017631,0.019868,1.063360,2.591594,782.06,40.00,highres
2.254562,66642635349,5.506303,-0.753491,-8.204934,0.006252,0.056234,-0.003141,0.019868,1.063360,2.591594,782.06,40.00,highres
2.254562,66642654504,5.551454,-0.969032,-8.047666,-0.025317,0.058808,0.004669,0.019868,1.063360,2.591594,782.06,40.00,highres
2.254562,66642669450,5.560833,-1.032446,-7.849420,-0.041633,0.035190,-0.019575,0.019868,1.063360,2.591594,782.06,40.00,highres
2.254562,66642689434,5.418931,-0.724341,-7.751978,0.001944,0.010892,-0.027544,0.025540,1.068653,2.587598,782.07,40.00,highres
2.254562,66642707304,5.337167,-0.866072,-7.866531,0.021230,-0.017205,0.020853,0.013224,1.055871,2.585315,782.07,40.00,highres
2.254642,66642729463,5.509501,-1.307451,-8.020907,0.015989,-0.021811,0.020646,0.013224,1.055871,2.585315,782.07,40.00,highres
2.254642,66642746956,5.558533,-1.073658,-7.988541,-0.020409,-0.043094,-0.010402,0.013224,1.055871,2.585315,782.07,40.00,highres
2.254642,66642769339,5.615247,-1.060712,-8.266708,0.029491,-0.042623,-0.009514,0.013224,1.055871,2.585315,782.06,40.00,highres
2.254642,66642793247,5.638066,-1.206969,-8.318758,0.046887,0.027615,-0.035628,0.013224,1.055871,2.585315,782.06,40.00,highres
2.254642,66642812056,5.550637,-1.007093,-8.042624,0.015315,0.038883,-0.063752,0.013224,1.055871,2.585315,782.06,40.00,highres
2.254642,66642832701,5.485966,-0.966146,-7.962658,0.001988,-0.001017,-0.052145,0.021847,1.064567,2.589029,782.06,40.00,highres
2.254642,66642850345,5.446463,-0.901505,-8.052437,0.012373,0.007840,-0.054894,0.026972,1.067037,2.584890,782.07,40.00,highres
2.254642,66642872182,5.430068,-0.828172,-7.985662,0.029591,0.026362,-0.028980,0.026972,1.067037,2.584890,782.07,40.00,highres
2.254742,66642885990,5.508238,-0.784665,-7.875930,0.039862,0.032580,-0.023740,0.026972,1.067037,2.584890,782.07,40.00,highres
2.254742,66642912907,5.519483,-0.829026,-7.750491,0.026580,-0.026265,-0.009047,0.026972,1.067037,2.584890,782.07,40.00,highres
2.254742,66642932765,5.532372,-0.916131,-7.945756,0.034875,-0.060189,-0.012935,0.026972,1.067037,2.584890,782.07,40.00,highres
2.254742,66642955263,5.368466,-0.811062,-8.156177,0.023345,-0.071588,-0.011899,0.026972,1.067037,2.584890,782.07,40.00,highres
2.254742,66642973260,5.334419,-0.798558,-8.277601,0.012006,-0.048237,0.013340,0.018964,1.066884,2.581656,782.07,40.00,highres
2.254742,66642992361,5.315965,-0.900819,-8.243358,0.018022,-0.027742,0.046502,0.030859,1.070739,2.560419,782.07,40.00,highres
2.254742,66643008008,5.353919,-1.116672,-8.315797,0.004649,-0.027398,0.056407,0.030859,1.070739,2.560419,782.08,40.00,highres
2.254742,66643034931,5.472798,-1.320472,-8.326561,-0.031344,-0.032292,0.021360,0.030859,1.070739,2.560419,782.08,40.00,highres
2.254834,66643052477,5.545818,-1.119368,-8.376838,-0.000761,0.024334,-0.000222,0.030859,1.070739,2.560419,782.08,40.00,highres
2.254834,66643069836,5.581423,-1.023298,-8.296068,0.003048,0.067812,0.004656,0.030859,1.070739,2.560419,782.08,40.00,highres
2.254834,66643092601,5.725089,-1.213362,-7.954257,-0.017833,0.084894,-0.019653,0.030859,1.070739,2.560419,782.08,40.00,highres
2.254834,66643108413,5.624824,-0.950584,-7.704096,-0.009008,0.053044,-0.048480,0.023217,1.062470,2.581663,782.08,40.00,highres
2.254834,66643129751,5.407439,-0.739480,-7.711773,0.016038,0.001426,-0.045731,0.020585,1.062623,2.589844,782.08,40.00,highres
2.254834,66643148914,5.316974,-0.787284,-7.832212,0.033753,-0.022092,-0.024045,0.020585,1.062623,2.589844,782.08,40.00,highres
2.254834,66643165905,5.362830,-0.805566,-7.923682,0.043132,-0.031398,-0.009924,0.020585,1.062623,2.589844,782.08,40.00,highres
2.254834,66643175540,5.383330,-0.848229,-8.080649,0.049814,-0.043345,-0.003142,0.020585,1.062623,2.589844,782.08,40.00,highres
2.254915,66643202864,5.375849,-0.933807,-8.388238,0.023880,-0.066605,0.013551,0.020585,1.062623,2.589844,782.08,40.00,highres
2.254915,66643217370,5.413438,-0.980588,-8.410973,-0.005648,-0.051719,0.021769,0.020585,1.062623,2.589844,782.08,40.00,highres
2.254915,66643237318,5.491227,-1.162023,-8.459908,0.021133,-0.002253,0.024879,0.016017,1.060349,2.583578,782.08,40.00,highres
2.254915,66643256001,5.507910,-1.226879,-8.395683,-0.001785,0.026526,0.014828,0.043893,1.067322,2.574716,782.08,40.00,highres
2.254915,66643278463,5.445493,-1.202272,-8.217469,-0.027450,0.055591,0.004737,0.043893,1.067322,2.574716,782.08,40.00,highres
2.254915,66643312878,5.432734,-1.151249,-7.970749,-0.011502,0.104204,0.008025,0.043893,1.067322,2.574716,782.08,40.00,highres
2.254915,66643326349,5.529641,-1.095890,-7.764080,-0.019321,0.102198,0.006749,0.043893,1.067322,2.574716,782.07,40.00,highres
2.254915,66643355367,5.674938,-0.971141,-7.427543,-0.009996,0.000798,0.002653,0.043893,1.067322,2.574716,782.07,40.00,highres
2.254915,66643372697,5.737149,-1.030042,-7.693389,0.015557,-0.039922,-0.014822,0.043893,1.067322,2.574716,782.07,40.00,highres
2.254993,66643395634,5.676389,-0.976066,-7.991618,0.009624,-0.051584,-0.037385,0.020456,1.062903,2.586321,782.07,40.00,highres
2.254993,66643413362,5.576587,-0.912207,-8.040610,0.011836,-0.057200,-0.042029,0.025332,1.066226,2.577974,782.06,40.00,highres
2.254993,66643434394,5.390482,-0.905096,-8.195665,0.019661,-0.061393,-0.027980,0.025332,1.066226,2.577974,782.06,40.00,highres
2.254993,66643453271,5.284316,-0.879690,-8.340362,0.027385,-0.029451,-0.019512,0.025332,1.066226,2.577974,782.06,40.00,highres
2.254993,66643467717,5.237051,-0.923591,-8.355409,0.015477,-0.008014,-0.007963,0.025332,1.066226,2.577974,782.06,40.00,highres
2.254993,66643492481,5.311196,-1.030786,-8.362472,-0.022447,-0.001017,0.014439,0.025332,1.066226,2.577974,782.06,40.00,highres
2.254993,66643512663,5.431087,-1.019497,-8.383875,-0.026270,0.040626,0.013417,0.025332,1.066226,2.577974,782.06,40.00,highres
2.254993,66643536383,5.509217,-1.014449,-8.155229,-0.023817,0.077732,0.024935,0.017981,1.055451,2.581448,782.06,40.00,highres
2.254993,66643552710,5.586051,-1.103860,-7.987847,-0.011907,0.093515,0.019931,0.016152,1.067261,2.581240,782.06,40.00,highres
2.255068,66643572672,5.673311,-1.184039,-7.807786,-0.031463,0.072579,-0.010303,0.016152,1.067261,2.581240,782.06,40.00,highres
2.255068,66643593864,5.667521,-0.997688,-7.685046,-0.034824,0.028962,-0.030814,0.016152,1.067261,2.581240,782.06,40.00,highres
2.255068,66643614088,5.599701,-0.803544,-7.699111,0.018937,0.017711,-0.023132,0.016152,1.067261,2.581240,782.06,40.00,highres
2.255068,66643633267,5.572484,-1.060654,-7.716728,0.009638,-0.026026,-0.017528,0.016152,1.067261,2.581240,782.06,40.00,highres
2.255068,66643648076,5.526775,-0.947797,-7.788358,0.013973,-0.049125,-0.035876,0.016152,1.067261,2.581240,782.07,40.00,highres
2.255068,66643668300,5.380687,-0.842563,-8.065503,0.032836,-0.074328,-0.018241,0.029804,1.061325,2.577852,782.07,40.00,highres
2.255068,66643688730,5.434555,-0.978026,-8.252960,0.033447,-0.056002,0.007415,0.036233,1.070249,2.560242,782.07,40.00,highres
2.255068,66643708153,5.466980,-0.980257,-8.204083,0.005958,-0.027597,0.008026,0.036233,1.070249,2.560242,782.07,40.00,highres
2.255150,66643726626,5.499133,-0.907490,-8.174536,-0.001189,-0.027265,0.008864,0.036233,1.070249,2.560242,782.07,40.00,highres
2.255150,66643746787,5.474827,-1.017505,-8.204930,0.008826,-0.020002,0.016100,0.036233,1.070249,2.560242,782.07,40.00,highres
2.255150,66643771393,5.465363,-1.030653,-8.250516,0.010676,0.009652,-0.006121,0.036233,1.070249,2.560242,782.07,40.00,highres
2.255150,66643793432,5.401883,-0.934845,-8.103228,0.004242,0.023570,0.009174,0.036233,1.070249,2.560242,782.07,40.00,highres
2.255150,66643810418,5.495911,-1.068485,-8.091538,-0.012381,0.021658,0.012707,0.022728,1.056759,2.587155,782.08,40.00,highres
2.255150,66643834219,5.555395,-1.010436,-8.000964,-0.021226,0.023410,-0.002664,0.029492,1.056785,2.586444,782.08,40.00,highres
2.255150,66643851945,5.576941,-0.939810,-7.878864,-0.002900,0.015163,-0.001137,0.029492,1.056785,2.586444,782.08,40.00,highres
2.255150,66643873528,5.567472,-0.956533,-7.874349,0.013288,-0.005238,-0.006206,0.029492,1.056785,2.586444,782.08,40.00,highres
2.255225,66643894464,5.492653,-0.969159,-7.951265,0.013384,-0.023479,-0.011574,0.029492,1.056785,2.586444,782.06,40.00,highres
2.255225,66643911936,5.372246,-0.808135,-7.941112,0.012372,-0.036760,-0.002664,0.029492,1.056785,2.586444,782.06,40.00,highres
2.255225,66643930795,5.371049,-0.936219,-8.059618,0.009928,-0.048978,0.025130,0.029492,1.056785,2.586444,782.06,40.00,highres
2.255225,66643952107,5.478784,-1.109792,-8.205660,0.021535,-0.034011,0.013524,0.017036,1.059556,2.582876,782.06,40.00,highres
2.255225,66643974290,5.516279,-1.006282,-8.213054,0.022884,-0.007838,0.006982,0.026375,1.060149,2.556827,782.06,40.35,highres
2.255225,66643994704,5.557637,-1.155726,-8.222866,0.024147,0.007158,0.002890,0.026375,1.060149,2.556827,782.06,40.35,highres
2.255225,66644011728,5.550807,-1.137141,-8.174371,0.016956,0.021658,-0.010750,0.026375,1.060149,2.556827,782.06,40.35,highres
2.255225,66644036213,5.522307,-1.044223,-7.991953,-0.008779,0.011531,-0.026979,0.026375,1.060149,2.556827,782.06,40.35,highres
2.255225,66644055935,5.463004,-0.949441,-7.951938,-0.001470,-0.002302,-0.024419,0.026375,1.060149,2.556827,782.06,40.70,highres
2.255298,66644070840,5.461246,-0.996514,-7.950375,0.031614,0.000503,-0.022517,0.026375,1.060149,2.556827,782.06,40.70,highres
2.255298,66644088674,5.446463,-0.895520,-7.963856,0.041280,0.002808,-0.026990,0.019230,1.061949,2.588342,782.06,40.70,highres
2.255298,66644108505,5.427628,-0.935688,-7.979568,0.003514,-0.031263,-0.002053,0.010952,1.055652,2.592886,782.06,40.70,highres
2.256477,66644127756,5.478950,-1.093036,-8.059827,0.005580,-0.043961,0.005417,0.010952,1.055652,2.592886,782.07,40.70,highres
2.256477,66644147471,5.528210,-1.160735,-8.079627,0.014844,-0.029597,-0.018184,0.010952,1.055652,2.592886,782.07,40.70,highres
2.297370,66644168508,5.537655,-0.978685,-8.055989,0.005610,-0.030183,-0.034358,0.010952,1.055652,2.592886,782.07,40.70,highres
2.325920,66644189281,5.513185,-0.972702,-8.181875,0.027348,-0.021268,-0.029422,0.010952,1.055652,2.592886,782.07,40.70,highres
2.341900,66644207924,5.444069,-0.911081,-8.067999,0.038412,0.005073,-0.019690,0.010952,1.055652,2.592886,782.07,40.70,highres
2.357230,66644226659,5.485500,-1.094764,-7.986563,0.014919,-0.007030,-0.011496,0.013933,1.065511,2.583531,782.07,40.70,highres
2.378595,66644246268,5.455820,-1.121830,-8.038932,-0.023974,-0.052337,-0.027709,0.019246,1.067444,2.580697,782.07,40.70,highres
2.391947,66644267186,5.351472,-0.834291,-8.165311,-0.002635,-0.042731,-0.046031,0.019246,1.067444,2.580697,782.07,40.70,highres
2.423763,66644281712,5.373382,-0.777710,-8.197280,0.023367,-0.017824,-0.022517,0.019246,1.067444,2.580697,782.07,40.70,highres
2.432048,66644299341,5.385049,-0.948784,-8.138571,0.052696,0.014287,0.007734,0.019246,1.067444,2.580697,782.07,40.70,highres
2.459211,66644334109,5.489757,-1.272990,-8.029144,-0.011337,-0.024530,-0.010516,0.019246,1.067444,2.580697,782.07,40.70,highres
2.483038,66644353764,5.458433,-0.997269,-8.131442,0.019039,-0.026638,-0.033607,0.019246,1.067444,2.580697,782.07,40.70,highres
2.491131,66644377032,5.394397,-0.886106,-8.150531,0.026409,-0.002398,0.000412,0.014863,1.059076,2.581772,782.07,40.70,highres
2.525051,66644393759,5.492676,-1.066725,-8.071105,0.019329,0.008817,0.008443,0.025513,1.069428,2.578064,782.07,40.70,highres
2.532130,66644414720,5.517140,-1.105139,-7.947080,0.046507,-0.008233,-0.021033,0.025513,1.069428,2.578064,782.07,40.70,highres
2.555873,66644431979,5.443059,-1.005381,-8.097302,0.029031,-0.041170,-0.018846,0.025513,1.069428,2.578064,782.07,40.70,highres
2.575762,66644454559,5.373858,-0.992663,-8.243999,0.011311,-0.030748,0.008765,0.025513,1.069428,2.578064,782.06,40.70,highres
2.592054,66644469079,5.436488,-1.147709,-8.226399,0.016150,0.000176,0.009610,0.025513,1.069428,2.578064,782.06,40.70,highres
2.625623,66644489461,5.513694,-1.245026,-8.065637,-0.007481,0.004779,0.005583,0.025513,1.069428,2.578064,782.06,40.70,highres
2.634354,66644509230,5.514453,-1.172474,-8.068029,-0.005407,-0.013403,-0.027678,0.013323,1.056887,2.582944,782.06,40.70,highres
2.663129,66644527191,5.477586,-1.020013,-8.145807,0.013018,-0.012823,-0.036536,0.026883,1.068064,2.565011,782.06,40.70,highres
2.678283,66644549221,5.425545,-0.944762,-8.096858,0.034974,0.026464,-0.032596,0.026883,1.068064,2.565011,782.06,40.70,highres
2.692554,66644561402,5.439403,-1.084403,-8.028123,0.042050,0.033710,-0.026421,0.026883,1.068064,2.565011,782.06,40.70,highres
2.723988,66644588676,5.413163,-1.040193,-8.000597,0.006873,-0.016912,-0.048784,0.026883,1.068064,2.565011,782.06,40.70,highres
2.731107,66644611155,5.364109,-0.895864,-8.140004,0.022450,-0.019624,-0.037740,0.026883,1.068064,2.565011,782.07,40.70,highres
2.759778,66644628721,5.355637,-0.945292,-8.147247,0.007821,-0.002003,-0.012294,0.026883,1.068064,2.565011,782.07,40.70,highres
2.776044,66644648416,5.456040,-1.084653,-8.067998,0.005346,0.024321,-0.009994,0.012358,1.057392,2.577123,782.07,40.70,highres
2.804285,66644674804,5.430901,-0.852426,-7.876470,0.000515,-0.008298,-0.013076,0.021229,1.048450,2.576434,782.07,40.70,highres
2.824803,66644689081,5.410552,-0.765041,-7.974628,0.015425,-0.029740,0.008332,0.021229,1.048450,2.576434,782.07,40.70,highres
2.832983,66644717159,5.400237,-1.013849,-8.068814,0.002428,-0.033087,0.012127,0.021229,1.048450,2.576434,782.07,40.70,highres
2.855365,66644734655,5.342493,-1.058487,-8.103389,-0.015972,-0.049835,0.001551,0.021229,1.048450,2.576434,782.07,40.70,highres
2.877506,66644756976,5.322475,-1.070289,-8.321618,-0.008867,-0.057134,-0.001877,0.021229,1.048450,2.576434,782.07,40.70,highres
2.890984,66644772473,5.296832,-1.078668,-8.513301,-0.005518,-0.026473,0.008155,0.021229,1.048450,2.576434,782.07,40.70,highres
2.924925,66644796599,5.351956,-1.064708,-8.440937,-0.017362,0.051223,0.029413,0.019649,1.056085,2.577373,782.07,40.70,highres
2.933300,66644816732,5.450839,-1.186261,-8.130314,-0.029089,0.071066,0.035967,0.019300,1.067353,2.588658,782.07,40.70,highres
2.956637,66644834789,5.634516,-1.328116,-8.008648,-0.018847,0.052002,-0.003817,0.019300,1.067353,2.588658,782.07,40.70,highres
2.977838,66644852742,5.517829,-0.999695,-7.930567,-0.022260,0.030550,-0.024744,0.019300,1.067353,2.588658,782.07,40.70,highres
2.992492,66644869942,5.468370,-0.898800,-7.938559,-0.055659,0.004153,-0.006656,0.019300,1.067353,2.588658,782.07,40.70,highres
3.026355,66644889275,5.531111,-1.054214,-7.857032,-0.028830,0.000685,0.000162,0.019300,1.067353,2.588658,782.07,40.70,highres
3.040263,66644911690,5.528644,-1.094230,-7.896613,0.033835,0.001103,-0.028547,0.019300,1.067353,2.588658,782.07,40.70,highres
3.056283,66644935084,5.473598,-0.914382,-7.959266,-0.003530,-0.045258,-0.044942,0.016026,1.054481,2.581390,782.07,40.70,highres
3.080016,66644954821,5.351994,-0.835893,-8.083171,-0.004370,-0.066780,-0.028873,0.020056,1.054744,2.578476,782.07,40.70,highres
3.098257,66644969733,5.281944,-0.956719,-8.276510,0.014182,-0.049395,-0.016735,0.020056,1.054744,2.578476,782.07,40.70,highres
3.125249,66644997661,5.268250,-0.895486,-8.149627,-0.001798,-0.012822,-0.000422,0.020056,1.054744,2.578476,782.07,40.70,highres
3.139738,66645015053,5.349543,-0.920533,-8.066038,0.003943,-0.019163,0.021092,0.020056,1.054744,2.578476,782.07,40.70,highres
3.155209,66645028478,5.439281,-1.118171,-8.095531,0.019396,-0.026075,0.018105,0.020056,1.054744,2.578476,782.07,40.70,highres
3.176124,66645051951,5.467033,-1.122353,-8.240826,0.013898,-0.022104,-0.018852,0.020056,1.054744,2.578476,782.07,40.70,highres
3.204218,66645067326,5.433127,-0.978054,-8.271496,0.009622,-0.005306,-0.025877,0.015587,1.059642,2.578966,782.07,40.70,highres
3.223537,66645090787,5.397384,-0.926051,-8.190042,-0.013953,0.006692,-0.009804,0.022029,1.064642,2.560960,782.07,40.70,highres
3.239152,66645109835,5.335584,-0.995030,-8.084605,-0.016951,0.012409,0.005583,0.022029,1.064642,2.560960,782.07,40.70,highres
3.256289,66645127368,5.378530,-1.108111,-8.108215,-0.002595,0.009966,0.003445,0.022029,1.064642,2.560960,782.07,40.70,highres
3.265885,66645149667,5.333370,-0.922760,-7.950791,-0.036193,0.002330,-0.013660,0.022029,1.064642,2.560960,782.07,40.70,highres
3.306482,66645169649,5.432016,-0.982740,-8.014580,-0.020311,-0.023937,-0.000831,0.022029,1.064642,2.560960,782.07,40.70,highres
3.322454,66645187946,5.466577,-0.948639,-8.050013,0.007789,-0.014163,-0.007245,0.022029,1.064642,2.560960,782.07,40.70,highres
3.334003,66645207394,5.392595,-0.797361,-7.984205,0.014203,-0.025464,-0.006024,0.013314,1.052999,2.579363,782.07,40.70,highres
3.357555,66645227810,5.369440,-1.020607,-8.009197,-0.006593,-0.065715,0.016615,0.009885,1.065276,2.583874,782.07,40.70,highres
3.375709,66645247027,5.359324,-1.025375,-8.208510,-0.003208,-0.089422,-0.001991,0.009885,1.065276,2.583874,782.06,40.70,highres
3.393450,66645263258,5.250938,-0.954561,-8.278477,0.006248,-0.062050,-0.000324,0.009885,1.065276,2.583874,782.06,40.70,highres
3.425662,66645287693,5.371484,-1.195338,-8.259871,-0.000763,-0.031573,0.020549,0.009885,1.065276,2.583874,782.06,40.70,highres
3.431993,66645309367,5.511607,-1.224860,-8.261308,0.014867,-0.010307,-0.006096,0.009885,1.065276,2.583874,782.06,40.70,highres
3.455856,66645335622,5.404373,-0.910058,-8.341176,0.014483,-0.004138,-0.039530,0.009885,1.065276,2.583874,782.07,40.70,highres
3.475449,66645352759,5.243251,-0.824340,-8.334229,-0.029396,0.010504,-0.010305,0.011971,1.058563,2.580059,782.07,40.70,highres
3.492585,66645367585,5.225062,-0.954488,-8.151106,-0.025198,0.032568,0.007721,0.007762,1.055633,2.579101,782.07,40.70,highres
3.523120,66645387999,5.366261,-1.089656,-8.065357,0.021839,0.055475,-0.007551,0.007762,1.055633,2.579101,782.07,40.70,highres
3.533332,66645409970,5.404856,-0.835380,-7.972278,-0.020374,0.018796,-0.012610,0.007762,1.055633,2.579101,782.07,40.70,highres
3.557063,66645430229,5.417182,-0.805566,-7.923790,-0.018945,-0.001860,0.009192,0.007762,1.055633,2.579101,782.07,40.70,highres
3.577697,66645453273,5.474930,-1.148326,-8.035405,0.020312,-0.009887,-0.017630,0.007762,1.055633,2.579101,782.07,40.70,highres
3.592082,66645469897,5.312231,-0.843424,-8.070489,-0.007016,-0.041589,-0.023512,0.007762,1.055633,2.579101,782.07,40.70,highres
3.625080,66645492924,5.266394,-0.847740,-8.271791,0.017300,-0.027605,0.014743,0.013964,1.060011,2.581476,782.07,40.70,highres
3.630898,66645513225,5.326956,-1.162889,-8.260296,-0.023558,-0.006950,0.022967,0.012754,1.062330,2.576873,782.07,40.70,highres
3.657826,66645532430,5.446895,-1.096854,-8.051027,-0.001019,0.002607,-0.003467,0.012754,1.062330,2.576873,782.07,40.70,highres
3.676883,66645552503,5.465995,-1.037647,-8.083707,0.046206,-0.000440,-0.017644,0.012754,1.062330,2.576873,782.07,40.70,highres
3.695110,66645572617,5.405397,-0.960808,-8.212193,0.035395,-0.009752,-0.029683,0.012754,1.062330,2.576873,782.07,40.70,highres
3.722210,66645592530,5.272550,-0.900809,-8.251808,0.016204,0.005919,-0.016123,0.012754,1.062330,2.576873,782.07,40.70,highres
3.740908,66645613763,5.246883,-0.981165,-8.064297,0.017285,0.016068,-0.004496,0.012754,1.062330,2.576873,782.07,40.70,highres
3.761103,66645627812,5.319532,-1.042060,-8.070426,0.024938,0.002439,-0.004731,0.013362,1.053728,2.580240,782.07,40.70,highres
3.775986,66645650862,5.401911,-0.972522,-8.126724,0.007235,-0.022111,-0.008922,0.018030,1.044938,2.588032,782.07,40.70,highres
3.804539,66645673005,5.451626,-1.047920,-8.161887,0.062021,0.022014,-0.020140,0.018030,1.044938,2.588032,782.07,40.70,highres
3.821478,66645692729,5.418451,-0.928715,-8.007503,0.068841,0.021002,-0.035249,0.018030,1.044938,2.588032,782.07,40.70,highres
3.831314,66645715436,5.317492,-0.848474,-7.956111,0.019765,-0.059471,-0.014305,0.018030,1.044938,2.588032,782.07,40.70,highres
3.856134,66645732756,5.309383,-0.990738,-8.219181,0.022605,-0.067993,-0.009386,0.018030,1.044938,2.588032,782.06,40.70,highres
3.884040,66645750842,5.316046,-1.029164,-8.275781,0.030981,-0.020782,-0.017041,0.018030,1.044938,2.588032,782.06,40.70,highres
3.892646,66645775608,5.289649,-1.081062,-8.152988,0.038996,-0.040244,-0.005830,0.015474,1.057403,2.580863,782.06,40.70,highres
3.923444,66645795191,5.309483,-1.082775,-8.137152,0.036425,-0.021149,0.001448,0.004014,1.069642,2.591462,782.06,40.70,highres
3.933178,66645811698,5.378238,-1.078780,-8.147330,0.030695,-0.020278,0.004667,0.004014,1.069642,2.591462,782.07,40.70,highres
3.956774,66645828294,5.430901,-1.126550,-8.210447,0.002901,-0.026692,0.000085,0.004014,1.069642,2.591462,782.07,40.70,highres
3.977250,66645853591,5.420065,-1.005594,-8.040753,0.021970,-0.018926,-0.005791,0.004014,1.069642,2.591462,782.07,40.70,highres
4.000888,66645875418,5.361491,-1.087623,-8.139199,0.019099,-0.050046,-0.004493,0.004014,1.069642,2.591462,782.07,40.70,highres
4.025555,66645893071,5.300486,-1.222402,-8.205433,0.012528,-0.068808,-0.016273,0.004014,1.069642,2.591462,782.07,40.70,highres
4.043743,66645912890,5.233955,-1.087867,-8.429558,0.022754,-0.030052,-0.029542,0.011104,1.055272,2.584258,782.07,40.70,highres
4.057156,66645928748,5.184452,-1.003419,-8.363363,0.013157,0.000558,-0.010730,0.017198,1.057673,2.587069,782.07,40.70,highres
4.079038,66645946013,5.346768,-1.109063,-8.232464,0.004663,0.022453,0.005002,0.017198,1.057673,2.587069,782.07,40.70,highres
4.091876,66645968508,5.374954,-1.021516,-8.067159,-0.014500,0.013904,-0.008045,0.017198,1.057673,2.587069,782.07,40.85,highres
4.122450,66645983215,5.359403,-0.958873,-8.039548,-0.015695,-0.003669,-0.014003,0.017198,1.057673,2.587069,782.07,40.85,highres
4.133120,66645997914,5.387189,-1.001646,-8.051322,0.001069,-0.015697,-0.015797,0.017198,1.057673,2.587069,782.07,40.85,highres
4.161753,66646021414,5.266274,-1.029795,-8.181859,0.028089,-0.029318,-0.034163,0.017198,1.057673,2.587069,782.07,40.85,highres
4.176544,66646053282,5.142412,-0.973328,-8.249951,0.015613,-0.029581,-0.026742,0.008780,1.052080,2.583323,782.07,41.00,highres
4.199376,66646070555,5.116866,-0.986521,-8.235050,0.020939,-0.013038,-0.007008,-0.002431,1.066201,2.581314,782.07,41.00,highres
4.226553,66646093220,5.238105,-1.154497,-8.301555,-0.000390,-0.026208,-0.005449,-0.002431,1.066201,2.581314,782.07,41.00,highres
4.236949,66646112590,5.270649,-1.053573,-8.333940,-0.007661,-0.012742,-0.002230,-0.002431,1.066201,2.581314,782.07,41.00,highres
4.255763,66646136621,5.327955,-1.049939,-8.340924,0.001520,0.023822,0.016874,-0.002431,1.066201,2.581314,782.07,41.00,highres
4.271076,66646155872,5.368368,-1.094486,-8.254965,-0.026965,0.045468,0.010619,-0.002431,1.066201,2.581314,782.07,41.00,highres
4.271076,66646174988,5.419112,-1.038649,-8.127222,-0.045755,0.038597,-0.001928,-0.002431,1.066201,2.581314,782.07,41.00,highres
4.322481,66646190930,5.397384,-1.015224,-7.977023,-0.048717,0.016068,-0.010910,0.009323,1.057922,2.580014,782.07,41.00,highres
4.331845,66646206812,5.366115,-0.959330,-7.955275,-0.019421,0.007692,-0.024219,0.012851,1.062166,2.591202,782.07,41.00,highres
4.357174,66646225951,5.213472,-0.765483,-7.878262,0.018979,0.001366,-0.006209,0.012851,1.062166,2.591202,782.07,41.00,highres
4.378099,66646253967,5.228646,-1.015428,-7.977025,0.028863,-0.052959,0.026963,0.012851,1.062166,2.591202,782.07,41.00,highres
4.392164,66646268161,5.250147,-1.182811,-8.308605,0.015887,-0.073461,0.019739,0.012851,1.062166,2.591202,782.07,41.00,highres
4.421845,66646282517,5.247906,-1.164053,-8.440476,-0.016646,-0.077394,0.004972,0.012851,1.062166,2.591202,782.07,41.00,highres
4.432423,66646308156,5.244161,-1.116974,-8.544424,0.007788,-0.023332,0.012608,0.012851,1.062166,2.591202,782.07,41.00,highres
4.457524,66646323450,5.311193,-1.255031,-8.514506,0.018784,0.016679,0.013830,0.012851,1.062166,2.591202,782.07,41.00,highres
4.484028,66646353132,5.396050,-1.167228,-8.376060,-0.003042,0.053529,-0.030749,0.012344,1.054251,2.583018,782.07,41.00,highres
4.491574,66646368189,5.309645,-0.937479,-8.243672,-0.034362,0.049360,-0.032901,0.012344,1.054251,2.583018,782.07,41.00,highres
4.526470,66646393763,5.312309,-0.994182,-8.061982,-0.045924,0.048139,-0.016408,0.012344,1.054251,2.583018,782.07,41.00,highres
4.534456,66646413901,5.307930,-0.916552,-7.876829,-0.015007,0.036314,-0.028625,0.012344,1.054251,2.583018,782.07,41.00,highres
4.557817,66646433931,5.196080,-0.821169,-7.848673,0.017765,-0.003479,-0.013727,0.012344,1.054251,2.583018,782.07,41.00,highres
4.576301,66646451823,5.226206,-0.907490,-7.987796,0.028013,-0.021640,0.000954,0.012344,1.054251,2.583018,782.06,41.00,highres
4.592239,66646471143,5.213804,-0.913582,-8.069846,0.023156,-0.028764,0.011267,0.013108,1.057157,2.577278,782.06,41.00,highres
4.625361,66646488843,5.227403,-0.979313,-8.188901,-0.009622,-0.058457,0.034599,-0.004421,1.058086,2.582954,782.06,41.00,highres
4.631322,66646513672,5.365063,-1.184008,-8.464222,0.023976,-0.023638,0.012303,-0.004421,1.058086,2.582954,782.06,41.00,highres
4.658191,66646529313,5.358025,-1.156621,-8.432954,-0.005716,-0.002855,0.001480,-0.004421,1.058086,2.582954,782.07,41.00,highres
4.677539,66646548887,5.381636,-1.043768,-8.336964,-0.004124,0.018817,-0.010605,-0.004421,1.058086,2.582954,782.07,41.00,highres
4.693608,66646568738,5.253538,-1.006685,-8.226885,0.014180,0.044911,-0.010288,-0.004421,1.058086,2.582954,782.07,41.00,highres
4.723243,66646583928,5.225550,-1.041560,-8.061203,-0.027050,0.035931,-0.002357,-0.004421,1.058086,2.582954,782.07,41.00,highres
4.732198,66646608794,5.221958,-0.885380,-7.912406,-0.032687,0.004695,-0.001312,0.009335,1.053566,2.581533,782.05,41.00,highres
4.759701,66646633675,5.316703,-0.999755,-8.045301,0.028103,-0.005633,0.015053,0.009482,1.058062,2.584469,782.05,41.00,highres
4.776566,66646654055,5.420539,-1.051022,-8.138777,0.023789,-0.013446,0.006832,0.009482,1.058062,2.584469,782.05,41.00,highres
4.801594,66646674456,5.392782,-1.074527,-8.163392,0.005792,-0.029258,-0.003414,0.009482,1.058062,2.584469,782.05,41.00,highres
4.824658,66646691691,5.283657,-0.980412,-8.217910,0.002431,-0.036519,-0.002428,0.009482,1.058062,2.584469,782.05,41.00,highres
4.844130,66646711207,5.159261,-1.064901,-8.304835,0.016034,-0.018721,0.014615,0.009482,1.058062,2.584469,782.05,41.00,highres
4.856978,66646728966,5.205953,-1.161990,-8.330749,0.016034,0.013924,0.009860,0.009482,1.058062,2.584469,782.05,41.00,highres
4.876550,66646748443,5.294322,-0.984913,-8.187357,0.006566,0.019422,-0.002968,0.010715,1.050868,2.579989,782.05,41.00,highres
4.892041,66646764364,5.368250,-0.962537,-8.198055,-0.000427,0.005810,0.003853,0.012357,1.055106,2.578264,782.05,41.00,highres
4.924203,66646789047,5.311403,-1.013450,-8.220644,-0.006365,0.005330,0.004199,0.012357,1.055106,2.578264,782.05,41.00,highres
4.932821,66646804401,5.307321,-0.993146,-8.171839,-0.003492,0.012048,-0.005630,0.012357,1.055106,2.578264,782.05,41.00,highres
4.964345,66646827028,5.225406,-1.046457,-8.184282,-0.011760,-0.000939,-0.001239,0.012357,1.055106,2.578264,782.05,41.00,highres
4.975432,66646852059,5.253737,-1.094230,-8.188900,-0.020387,0.000820,-0.001205,0.012357,1.055106,2.578264,782.06,41.00,highres
4.995330,66646876034,5.265708,-0.800953,-8.023708,-0.000596,0.017536,0.017407,0.012357,1.055106,2.578264,782.06,41.00,highres
5.023166,66646889630,5.299226,-0.845551,-7.964552,-0.012837,-0.000592,0.033330,0.011400,1.055798,2.582713,782.06,41.00,highres
5.031644,66646914508,5.358689,-1.212258,-8.039478,0.028988,-0.047990,0.021784,0.007837,1.055506,2.590245,782.06,41.00,highres
5.057910,66646928806,5.281270,-1.243861,-8.337337,0.039247,-0.048384,0.001003,0.007837,1.055506,2.590245,782.05,41.00,highres
5.077809,66646951631,5.222614,-1.128944,-8.508512,-0.029475,-0.023950,0.000697,0.007837,1.055506,2.590245,782.05,41.00,highres
5.098303,66646968906,5.322748,-1.152345,-8.480340,-0.005872,0.024276,0.010323,0.007837,1.055506,2.590245,782.05,41.00,highres
5.125088,66646994262,5.429704,-1.133732,-8.209251,-0.015731,0.054241,-0.014269,0.007837,1.055506,2.590245,782.05,41.00,highres
5.135168,66647011828,5.436273,-1.049592,-8.066772,-0.032151,0.031331,-0.032182,0.007837,1.055506,2.590245,782.05,41.00,highres
5.160591,66647031840,5.331347,-0.862872,-7.995677,0.006916,0.011567,-0.028837,0.008963,1.054600,2.585454,782.05,41.00,highres
5.176553,66647052423,5.198674,-0.948190,-8.047650,0.002290,0.003234,-0.015796,0.017682,1.040262,2.576753,782.05,41.00,highres
5.192485,66647072315,5.156750,-0.987719,-8.030359,0.003511,-0.018146,-0.010909,0.017682,1.040262,2.576753,782.05,41.00,highres
5.224472,66647088189,5.162539,-0.922078,-8.174268,0.011945,-0.027451,-0.006842,0.017682,1.040262,2.576753,782.06,41.00,highres
5.232567,66647107740,5.251044,-0.993029,-8.295463,-0.002923,-0.028871,0.014910,0.017682,1.040262,2.576753,782.06,41.00,highres
5.257128,66647134500,5.335137,-1.052333,-8.217628,0.028652,0.001598,0.022216,0.017682,1.040262,2.576753,782.06,41.00,highres
5.272180,66647149218,5.354290,-1.154082,-8.254738,0.037148,0.003764,0.014294,0.017682,1.040262,2.576753,782.06,41.00,highres
5.272180,66647174804,5.359900,-1.185467,-8.344517,-0.031635,-0.011473,-0.020912,0.006782,1.052593,2.582226,782.07,41.00,highres
5.321854,66647189368,5.321970,-0.990628,-8.292745,-0.032116,0.004838,-0.021087,0.000231,1.058342,2.583732,782.07,41.00,highres
5.341154,66647209521,5.290845,-0.877564,-8.229601,-0.004428,0.030668,-0.001798,0.000231,1.058342,2.583732,782.07,41.00,highres
5.355446,66647229106,5.248454,-0.995417,-8.008306,0.004235,0.029840,0.022815,0.000231,1.058342,2.583732,782.07,41.00,highres
5.377548,66647253135,5.288452,-1.291743,-8.012934,0.023670,-0.001348,-0.014269,0.000231,1.058342,2.583732,782.06,41.00,highres
5.393473,66647274033,5.226206,-0.864869,-8.115415,0.014170,-0.027240,-0.021096,0.000231,1.058342,2.583732,782.06,41.00,highres
5.421650,66647294685,5.266948,-0.871582,-8.225638,0.005406,-0.020010,0.020501,0.000231,1.058342,2.583732,782.06,41.00,highres
5.432090,66647314655,5.349285,-1.055708,-8.194078,-0.001539,-0.010226,0.026417,0.010823,1.054116,2.587208,782.06,41.00,highres
5.456537,66647332189,5.369433,-1.140657,-8.129468,0.009170,-0.023129,0.005424,-0.000890,1.068057,2.566758,782.06,41.00,highres
5.477215,66647352133,5.268103,-1.139718,-8.366064,0.013285,-0.031585,-0.019461,-0.000890,1.068057,2.566758,782.06,41.00,highres
5.492091,66647367038,5.210256,-1.086555,-8.441898,0.002491,-0.014288,-0.023159,-0.000890,1.068057,2.566758,782.06,41.00,highres
5.524448,66647382505,5.226918,-1.008013,-8.378642,0.006700,0.021349,-0.020818,-0.000890,1.068057,2.566758,782.06,41.00,highres
5.532411,66647403692,5.229797,-0.885943,-8.151793,-0.011149,0.039580,-0.003884,-0.000890,1.068057,2.566758,782.06,41.00,highres
5.555634,66647427329,5.246874,-0.933492,-8.032542,-0.024422,0.017142,0.021937,-0.000890,1.068057,2.566758,782.06,41.00,highres
5.578869,66647437027,5.285368,-1.063297,-8.027298,-0.004412,0.018458,0.027109,-0.000890,1.068057,2.566758,782.06,41.00,highres
5.603290,66647471732,5.321631,-0.996150,-8.034898,-0.003096,-0.011063,0.004057,0.005370,1.042932,2.561501,782.06,41.00,highres
5.613596,66647495180,5.282468,-0.978116,-8.136230,-0.000544,-0.038414,0.020769,0.005370,1.042932,2.561501,782.06,41.00,highres
5.632613,66647514601,5.353093,-1.253437,-8.348108,0.016285,-0.012635,0.001274,0.005370,1.042932,2.561501,782.06,41.00,highres
5.656580,66647529581,5.303242,-1.130377,-8.289958,0.012182,0.012348,-0.013796,0.005370,1.042932,2.561501,782.06,41.00,highres
5.676149,66647552417,5.270496,-0.981707,-8.156580,0.012980,0.015451,0.003752,0.005370,1.042932,2.561501,782.06,41.00,highres
5.691805,66647574963,5.330514,-1.151513,-8.110837,0.028455,0.012939,0.005451,0.005370,1.042932,2.561501,782.07,41.00,highres
5.722010,66647592191,5.300423,-1.157651,-8.077372,0.023669,0.002618,-0.015491,0.007088,1.051755,2.581894,782.07,41.00,highres
5.731741,66647609703,5.272627,-0.976390,-8.080601,-0.013546,-0.035447,-0.024761,0.017704,1.069099,2.568276,782.07,41.00,highres
5.756516,66647632920,5.242843,-0.957727,-8.286785,0.002169,-0.040833,-0.002808,0.017704,1.069099,2.568276,782.07,41.00,highres
5.778620,66647647572,5.219628,-1.061909,-8.423145,0.001372,-0.011126,-0.007549,0.017704,1.069099,2.568276,782.06,41.00,highres
5.792044,66647666905,5.178651,-1.010436,-8.304798,-0.018786,0.009643,0.004363,0.017704,1.069099,2.568276,782.06,41.00,highres
5.824165,66647685669,5.294992,-1.088593,-8.121049,-0.006196,0.022241,0.022078,0.017704,1.069099,2.568276,782.06,41.00,highres
5.832098,66647702196,5.389606,-1.174581,-8.131145,0.017475,0.023167,0.014872,0.017704,1.069099,2.568276,782.06,41.00,highres
5.857227,66647736468,5.349527,-0.958627,-8.138149,-0.028807,-0.025148,-0.025461,0.008858,1.056193,2.578559,782.06,41.00,highres
5.876392,66647754804,5.279593,-0.960700,-8.278023,-0.014541,-0.031534,-0.005822,0.007308,1.047627,2.578877,782.06,41.00,highres
5.892215,66647772603,5.182275,-1.075165,-8.364479,0.005878,0.006597,0.002965,0.007308,1.047627,2.578877,782.06,41.00,highres
5.923208,66647792814,5.177081,-1.185038,-8.264277,0.024585,0.042556,0.007059,0.007308,1.047627,2.578877,782.06,41.00,highres
5.932282,66647809762,5.303109,-1.197856,-8.142610,0.005115,0.034911,-0.004739,0.007308,1.047627,2.578877,782.06,41.00,highres
5.955886,66647834924,5.346958,-0.917297,-8.060159,-0.010877,0.007584,-0.009500,0.007308,1.047627,2.578877,782.06,41.00,highres
5.976322,66647852265,5.350746,-0.871195,-8.092897,0.008290,0.007093,0.001599,0.007308,1.047627,2.578877,782.06,41.00,highres
5.996454,66647867377,5.263314,-0.938613,-8.021314,0.004427,0.000480,0.008333,0.004936,1.051781,2.579702,782.06,41.00,highres
6.025635,66647887280,5.257329,-1.145703,-8.127851,0.002900,-0.029758,0.008639,0.015444,1.052670,2.596759,782.05,41.00,highres
6.034223,66647912888,5.193103,-1.082473,-8.298590,0.016276,-0.031879,0.002418,0.015444,1.052670,2.596759,782.05,41.00,highres
6.058516,66647928153,5.252668,-1.086921,-8.363387,0.020714,-0.011316,0.003238,0.015444,1.052670,2.596759,782.05,41.00,highres
6.080258,66647948044,5.298245,-1.104938,-8.341099,0.006061,0.004354,0.003659,0.015444,1.052670,2.596759,782.05,41.00,highres
6.091967,66647967179,5.383318,-1.069862,-8.279022,-0.004345,0.017868,-0.003536,0.015444,1.052670,2.596759,782.06,41.00,highres
6.125181,66647995314,5.323737,-1.034132,-8.177881,-0.025453,0.013771,-0.009888,0.015444,1.052670,2.596759,782.06,41.00,highres
6.132699,66648010276,5.227389,-0.947842,-8.090047,-0.009520,0.009048,-0.004578,0.005918,1.052191,2.580892,782.06,41.00,highres
6.161680,66648032775,5.231224,-1.082329,-8.133630,-0.001571,-0.006970,0.001499,0.026831,1.064644,2.584026,782.06,41.00,highres
6.175252,66648052184,5.268024,-1.122569,-8.221274,-0.002332,-0.013262,-0.006548,0.026831,1.064644,2.584026,782.05,41.00,highres
6.201848,66648067439,5.298495,-1.019899,-8.317527,0.007481,0.002924,-0.006938,0.026831,1.064644,2.584026,782.05,41.00,highres
6.223612,66648090157,5.269562,-1.002627,-8.264568,-0.009601,0.017970,0.011453,0.026831,1.064644,2.584026,782.05,41.00,highres
6.234457,66648110380,5.330349,-1.066462,-8.033072,0.005461,0.030216,0.021713,0.026831,1.064644,2.584026,782.05,41.00,highres
6.256458,66648133768,5.355294,-1.162498,-7.954396,0.004605,-0.006057,-0.011643,0.026831,1.064644,2.584026,782.05,41.00,highres
6.276464,66648155929,5.263846,-0.909085,-8.042998,0.003918,-0.050969,-0.020004,0.007499,1.055525,2.576567,782.05,41.00,highres
6.276464,66648172893,5.237743,-0.897150,-8.265971,0.012063,-0.046075,-0.008166,0.016509,1.046556,2.578795,782.05,41.00,highres
6.321460,66648195464,5.150066,-0.991446,-8.383162,-0.001566,-0.032993,0.017348,0.016509,1.046556,2.578795,782.05,41.00,highres
6.331627,66648213328,5.178873,-1.135690,-8.423747,0.013895,-0.003185,0.016885,0.016509,1.046556,2.578795,782.05,41.00,highres
6.355289,66648232799,5.196322,-1.092402,-8.400713,0.004541,0.021410,0.017667,0.016509,1.046556,2.578795,782.05,41.00,highres
6.377330,66648250530,5.306246,-1.089392,-8.321312,-0.021354,0.026714,0.024521,0.016509,1.046556,2.578795,782.05,41.00,highres
6.399634,66648272865,5.410552,-1.107397,-8.178127,-0.024589,0.034994,0.015358,0.016509,1.046556,2.578795,782.05,41.00,highres
6.422094,66648293275,5.424993,-1.114582,-8.045032,-0.001872,0.032420,-0.013118,0.008629,1.052666,2.574540,782.05,41.00,highres
6.433058,66648307797,5.336596,-0.996549,-7.996680,0.008397,0.015752,-0.020683,0.007729,1.055688,2.574324,782.05,41.00,highres
6.455322,66648333786,5.232281,-1.001690,-8.054280,0.028236,-0.002123,-0.009978,0.007729,1.055688,2.574324,782.05,41.00,highres
6.476499,66648353395,5.153689,-1.028739,-8.130985,0.009306,-0.021066,-0.004348,0.007729,1.055688,2.574324,782.05,41.00,highres
6.492318,66648368826,5.242401,-1.019872,-8.278141,-0.016388,-0.029500,0.004596,0.007729,1.055688,2.574324,782.05,41.00,highres
6.522405,66648384232,5.288557,-0.947877,-8.306368,-0.008237,-0.016305,0.009253,0.007729,1.055688,2.574324,782.05,41.00,highres
6.532018,66648407887,5.319575,-1.126550,-8.350502,0.001833,0.001383,0.017332,0.007729,1.055688,2.574324,782.05,41.00,highres
6.556712,66648426467,5.264777,-1.192032,-8.298674,-0.012584,0.007175,0.000429,0.005109,1.056813,2.580721,782.05,41.00,highres
6.575695,66648447897,5.234585,-1.048742,-8.285861,-0.005958,0.031023,-0.008771,0.002238,1.064674,2.597968,782.06,41.00,highres
6.594314,66648472854,5.270848,-0.988002,-8.051550,-0.012779,0.028187,0.013082,0.002238,1.064674,2.597968,782.06,41.00,highres
6.622205,66648493247,5.328367,-1.030040,-8.032460,0.010135,0.017354,0.009049,0.002238,1.064674,2.597968,782.06,41.00,highres
6.632402,66648513720,5.383472,-1.101731,-8.098218,-0.002762,-0.006172,0.004016,0.002238,1.064674,2.597968,782.06,41.00,highres
6.659815,66648531051,5.305211,-1.122254,-8.106864,0.006079,-0.017493,0.000938,0.002238,1.064674,2.597968,782.06,41.00,highres
6.676414,66648554231,5.309999,-1.103806,-8.224813,0.005343,-0.000131,-0.006633,0.002238,1.064674,2.597968,782.06,41.00,highres
6.696512,66648573442,5.333291,-1.098876,-8.150899,0.000456,0.006589,-0.009382,0.010321,1.054266,2.582396,782.06,41.00,highres
6.722473,66648591326,5.275392,-1.048196,-8.098593,-0.018219,-0.010754,-0.008102,-0.010724,1.054410,2.593503,782.06,41.00,highres
6.732633,66648611703,5.292044,-0.994875,-8.106304,0.002287,-0.013881,-0.013657,-0.010724,1.054410,2.593503,782.06,41.00,highres
6.756342,66648633461,5.276001,-0.910924,-8.122895,0.037027,-0.005249,-0.012590,-0.010724,1.054410,2.593503,782.06,41.00,highres
6.775912,66648653559,5.235056,-0.867741,-8.139321,0.013412,-0.026119,0.003332,-0.010724,1.054410,2.593503,782.06,41.00,highres
6.793618,66648676015,5.197250,-1.026601,-8.232449,0.023383,-0.029351,0.010118,-0.010724,1.054410,2.593503,782.06,41.00,highres
6.822440,66648691736,5.189097,-0.999663,-8.297833,0.022751,-0.015103,0.004668,-0.010724,1.054410,2.593503,782.07,41.00,highres
6.831887,66648713660,5.191535,-1.003712,-8.337379,0.010505,-0.020009,0.029495,0.010584,1.058412,2.586187,782.07,41.00,highres
6.856701,66648734340,5.211066,-1.117027,-8.417354,-0.007792,-0.007664,0.037147,0.001698,1.056814,2.585008,782.07,41.00,highres
6.876770,66648754322,5.321286,-1.198194,-8.413089,0.004253,0.037086,0.023866,0.001698,1.056814,2.585008,782.07,41.00,highres
6.893458,66648770998,5.355793,-1.228232,-8.371826,-0.000258,0.053445,0.021455,0.001698,1.056814,2.585008,782.07,41.00,highres
6.926288,66648793795,5.388552,-1.152432,-8.254416,-0.041208,0.051497,0.007120,0.001698,1.056814,2.585008,782.07,41.00,highres
6.932387,66648810870,5.387422,-1.095041,-8.137529,-0.033217,0.053850,0.005890,0.001698,1.056814,2.585008,782.07,41.00,highres
6.959221,66648828308,5.399056,-1.168905,-8.027088,-0.018574,0.052556,-0.006135,0.001698,1.056814,2.585008,782.07,41.00,highres
6.979125,66648852411,5.321950,-1.080683,-7.916472,-0.015952,0.015694,-0.032289,0.011817,1.057538,2.582991,782.06,41.00,highres
6.992998,66648875931,5.196167,-0.991072,-7.918070,0.013745,-0.015146,-0.016763,0.009207,1.054141,2.577192,782.06,41.00,highres
7.022546,66648890956,5.230600,-0.992052,-8.070026,0.027634,-0.004009,-0.009285,0.009207,1.054141,2.577192,782.06,41.00,highres
7.031653,66648914830,5.365644,-1.010452,-8.100335,0.012227,-0.011122,-0.007244,0.009207,1.054141,2.577192,782.07,41.00,highres
7.062750,66648933836,5.353093,-0.973328,-8.161368,-0.021231,-0.041981,0.000698,0.009207,1.054141,2.577192,782.07,41.00,highres
7.076545,66648956405,5.307845,-1.038337,-8.284554,-0.002269,-0.038894,-0.001955,0.009207,1.054141,2.577192,782.07,41.00,highres
7.103229,66648971695,5.276448,-1.066851,-8.425729,0.002593,-0.011438,-0.011519,0.009207,1.054141,2.577192,782.07,41.00,highres
7.125518,66648988439,5.170305,-0.977815,-8.337022,-0.000026,0.013606,-0.005695,0.009203,1.053474,2.581707,782.07,41.00,highres
7.136608,66649008906,5.146909,-1.085131,-8.246497,0.004731,0.021854,0.017497,0.010823,1.055870,2.573781,782.07,41.00,highres
7.155241,66649028520,5.244162,-1.175629,-8.236783,-0.038335,0.008415,0.016275,0.010823,1.055870,2.573781,782.07,41.00,highres
7.184679,66649049134,5.342875,-0.991369,-8.199633,-0.035281,0.013607,0.011999,0.010823,1.055870,2.573781,782.07,41.00,highres
7.192665,66649068537,5.390201,-1.047545,-8.075181,-0.025507,0.020021,0.024216,0.010823,1.055870,2.573781,782.07,41.00,highres
7.223424,66649087845,5.432098,-1.222314,-8.008146,-0.014918,0.015621,0.024725,0.010823,1.055870,2.573781,782.07,41.00,highres
7.231088,66649108441,5.417348,-1.099850,-8.056027,0.040696,0.022503,-0.021142,0.010823,1.055870,2.573781,782.07,41.00,highres
7.261819,66649123970,5.285389,-0.948555,-8.049676,0.017927,0.003114,-0.024122,0.003148,1.058210,2.577811,782.07,41.00,highres
7.275310,66649138461,5.257329,-1.071486,-8.169748,-0.017260,-0.032818,-0.008771,0.010401,1.047810,2.578334,782.07,41.00,highres
7.285571,66649158964,5.229455,-1.010414,-8.232588,-0.004072,-0.025524,-0.009124,0.010401,1.047810,2.578334,782.07,41.00,highres
7.285571,66649169078,5.199757,-0.885116,-8.200900,0.002287,-0.012354,-0.021293,0.010401,1.047810,2.578334,782.07,41.00,highres
7.332196,66649187660,5.290846,-1.010436,-8.279877,0.008517,-0.002611,-0.007613,0.010401,1.047810,2.578334,782.07,41.00,highres
7.356385,66649232337,5.318442,-1.077345,-8.368521,-0.010235,0.008885,-0.001471,0.010401,1.047810,2.578334,782.07,41.00,highres
7.377355,66649251495,5.274138,-0.974575,-8.270150,-0.038219,0.007731,-0.000262,0.010401,1.047810,2.578334,782.07,41.00,highres
7.391682,66649272064,5.221179,-1.008287,-8.230796,-0.032919,0.015941,0.014332,0.010401,1.047810,2.578334,782.07,41.00,highres
7.423736,66649295431,5.297187,-1.108483,-8.170253,-0.018057,0.038786,0.007045,0.002540,1.044061,2.587563,782.07,41.00,highres
7.433067,66649308885,5.313063,-0.992667,-7.984183,-0.011829,0.039144,0.010830,0.002540,1.044061,2.587563,782.07,41.00,highres
7.458835,66649329140,5.397856,-0.984725,-7.889219,0.017762,0.028794,0.021052,0.002540,1.044061,2.587563,782.06,41.00,highres
7.477977,66649354052,5.432098,-1.100215,-7.894427,0.035235,-0.004972,0.009433,0.002540,1.044061,2.587563,782.06,41.00,highres
7.498320,66649371598,5.368656,-1.041560,-7.917171,-0.008141,-0.060308,-0.009076,0.002540,1.044061,2.587563,782.06,41.00,highres
7.525842,66649394222,5.276244,-0.984979,-8.294275,0.024757,-0.076200,-0.014441,0.002540,1.044061,2.587563,782.06,41.00,highres
7.537488,66649414508,5.172176,-1.080248,-8.536293,0.002362,-0.047414,0.002621,0.002540,1.044061,2.587563,782.06,41.00,highres
7.555270,66649428936,5.189504,-1.073522,-8.532489,-0.001626,-0.006552,0.008042,-0.000405,1.047134,2.583419,782.06,41.00,highres
7.577261,66649454716,5.213227,-1.097572,-8.384885,0.006311,0.036551,0.028492,-0.000405,1.047134,2.583419,782.06,41.00,highres
7.592946,66649472417,5.355681,-1.303341,-8.284795,-0.026426,0.034072,0.007211,-0.000405,1.047134,2.583419,782.06,41.00,highres
7.622909,66649488097,5.380671,-1.125261,-8.140994,-0.033225,0.030831,-0.019074,-0.000405,1.047134,2.583419,782.06,41.00,highres
7.632014,66649514132,5.304040,-0.930260,-8.082260,-0.009007,0.024739,-0.008037,-0.000405,1.047134,2.583419,782.06,41.00,highres
7.656219,66649535070,5.290332,-0.968215,-8.014111,-0.010091,0.026919,0.000375,-0.000405,1.047134,2.583419,782.06,41.00,highres
7.677521,66649552323,5.329381,-0.984938,-7.954558,0.001830,0.014446,0.005585,-0.000405,1.047134,2.583419,782.06,41.00,highres
7.695214,66649567469,5.328481,-0.956043,-7.863316,0.007785,-0.004413,0.006501,0.016101,1.056377,2.577156,782.07,41.00,highres
7.724995,66649591791,5.375837,-1.031526,-8.043775,0.025404,-0.041467,0.000270,0.007889,1.058926,2.571229,782.07,41.00,highres
7.736475,66649611467,5.255929,-0.974139,-8.176490,0.018463,-0.050058,0.008310,0.007889,1.058926,2.571229,782.07,41.00,highres
7.756555,66649631759,5.243731,-1.022854,-8.244509,-0.005125,-0.046815,0.017387,0.007889,1.058926,2.571229,782.07,41.00,highres
7.776966,66649644108,5.223811,-1.076274,-8.246358,0.005646,-0.038320,0.019941,0.007889,1.058926,2.571229,782.07,41.00,highres
7.795472,66649674828,5.280737,-1.134799,-8.327768,0.039036,0.009554,0.013598,0.007889,1.058926,2.571229,782.07,41.00,highres
7.823741,66649697268,5.338100,-1.110984,-8.208699,0.012221,0.012695,0.011388,0.007889,1.058926,2.571229,782.07,41.00,highres
7.832468,66649707330,5.341626,-1.109288,-8.157842,0.004966,0.001888,0.008876,-0.007706,1.054719,2.581815,782.07,41.00,highres
7.861006,66649728336,5.284994,-1.092708,-8.191900,-0.009014,-0.020605,0.000393,-0.007706,1.054719,2.581815,782.07,41.00,highres
7.877300,66649742043,5.251785,-1.157068,-8.253188,-0.017567,-0.029463,0.002531,-0.007706,1.054719,2.581815,782.07,41.00,highres
7.900026,66649762068,5.207663,-1.079887,-8.293653,-0.003288,-0.014955,-0.005105,-0.007706,1.054719,2.581815,782.07,41.00,highres
7.922844,66649779972,5.268986,-1.130694,-8.239348,0.009766,0.011612,0.010009,-0.007706,1.054719,2.581815,782.07,41.00,highres
7.931475,66649794885,5.363214,-1.185873,-8.119228,0.024588,0.033602,0.019466,-0.007706,1.054719,2.581815,782.06,41.00,highres
7.955433,66649832101,5.410257,-1.152010,-7.921363,-0.006714,0.002028,-0.005131,0.010258,1.056283,2.581206,782.06,41.00,highres
7.975857,66649854746,5.388717,-0.956706,-7.969424,0.028252,-0.021973,-0.032146,0.014668,1.056135,2.569918,782.06,41.00,highres
7.991783,66649874779,5.276481,-0.917066,-8.154186,0.021485,-0.039602,-0.033544,0.014668,1.056135,2.569918,782.06,41.00,highres
8.025703,66649894803,5.126851,-0.824894,-8.272696,-0.001684,-0.051454,-0.004189,0.014668,1.056135,2.569918,782.05,41.00,highres
8.032190,66649909358,5.054217,-0.926201,-8.367500,0.006379,-0.038077,0.020428,0.014668,1.056135,2.569918,782.05,41.00,highres
8.060608,66649929646,5.081018,-1.226070,-8.412067,-0.001677,-0.014717,0.035319,0.014668,1.056135,2.569918,782.05,41.00,highres
8.078192,66649950153,5.242965,-1.288152,-8.472601,0.016582,0.013849,0.021846,0.014668,1.056135,2.569918,782.05,41.00,highres
8.097806,66649966133,5.274359,-1.156476,-8.450706,0.017528,0.035487,0.013147,0.005928,1.061625,2.581116,782.06,40.85,highres
8.121768,66649986842,5.436886,-1.194782,-8.297832,-0.012422,0.059790,0.021687,0.011784,1.057353,2.588019,782.06,40.85,highres
8.132411,66650012651,5.479234,-1.093328,-8.003327,-0.029522,0.069213,-0.004756,0.011784,1.057353,2.588019,782.06,40.85,highres
8.155701,66650036689,5.427782,-0.977390,-7.763292,0.010719,0.030313,-0.024511,0.011784,1.057353,2.588019,782.06,40.85,highres
8.178035,66650055192,5.288206,-0.978260,-7.760170,0.021200,-0.021660,-0.027365,0.011784,1.057353,2.588019,782.07,40.70,highres
8.192564,66650072582,5.165342,-0.955557,-7.977326,0.032613,-0.055770,-0.015492,0.011784,1.057353,2.588019,782.07,40.70,highres
8.221554,66650093103,5.066998,-0.957766,-8.241570,0.009617,-0.080776,0.010472,0.011784,1.057353,2.588019,782.07,40.70,highres
8.232520,66650112626,5.128047,-1.105003,-8.466616,-0.014769,-0.059296,0.036752,0.009664,1.058059,2.574337,782.07,40.70,highres
8.258941,66650127259,5.234303,-1.205050,-8.558826,-0.004471,-0.023390,0.037540,0.002650,1.059189,2.591307,782.07,40.70,highres
8.276581,66650152451,5.378231,-1.195979,-8.491755,0.005421,0.040683,0.022090,0.002650,1.059189,2.591307,782.07,40.70,highres
8.286468,66650170387,5.404566,-1.181615,-8.357685,-0.012128,0.057879,0.007464,0.002650,1.059189,2.591307,782.07,40.70,highres
8.327330,66650192291,5.363264,-1.122365,-8.217016,-0.035128,0.047051,-0.010136,0.002650,1.059189,2.591307,782.07,40.70,highres
8.340475,66650215335,5.263760,-1.019956,-8.160301,-0.033159,0.055174,-0.016487,0.002650,1.059189,2.591307,782.07,40.70,highres
8.356448,66650235105,5.203461,-1.004451,-7.949491,-0.027340,0.048422,0.001309,0.002650,1.059189,2.591307,782.07,40.70,highres
8.384792,66650252392,5.274732,-1.090363,-7.925182,0.008302,0.035171,0.004716,0.010838,1.057082,2.583925,782.07,40.70,highres
8.394953,66650267761,5.283967,-1.072880,-7.984311,0.009034,0.015694,0.005700,0.005652,1.059526,2.577231,782.07,40.70,highres
8.423946,66650290307,5.346294,-1.032367,-8.048079,0.005984,-0.010211,0.007450,0.005652,1.059526,2.577231,782.07,40.70,highres
8.435120,66650306266,5.321599,-1.042412,-8.115821,0.006018,-0.020987,0.009861,0.005652,1.059526,2.577231,782.07,40.70,highres
8.456346,66650332745,5.385413,-1.186403,-8.297832,0.006868,-0.020911,-0.000829,0.005652,1.059526,2.577231,782.07,40.70,highres
8.476515,66650353105,5.285317,-1.057525,-8.299484,0.005982,-0.002499,-0.007798,0.005652,1.059526,2.577231,782.07,40.70,highres
8.503847,66650372944,5.303510,-1.064625,-8.249130,0.004829,0.009530,0.012464,0.005652,1.059526,2.577231,782.07,40.70,highres
8.524470,66650392725,5.330662,-1.200957,-8.330153,0.024599,0.037058,-0.001810,0.010435,1.054680,2.582576,782.07,40.70,highres
8.540365,66650412735,5.302818,-1.079865,-8.160172,-0.021924,0.032014,-0.009743,0.018698,1.058720,2.573287,782.07,40.70,highres
8.555920,66650428093,5.309925,-1.063967,-8.080101,-0.005349,0.027042,-0.003272,0.018698,1.058720,2.573287,782.07,40.70,highres
8.575727,66650447639,5.359396,-1.113586,-8.134650,-0.002295,0.025515,-0.006021,0.018698,1.058720,2.573287,782.07,40.70,highres
8.590986,66650467821,5.335029,-1.000575,-7.983311,-0.046277,0.004440,-0.002051,0.018698,1.058720,2.573287,782.07,40.70,highres
8.622281,66650490491,5.347107,-1.093033,-7.992584,0.007310,0.003913,0.007202,0.018698,1.058720,2.573287,782.07,40.70,highres
8.632944,66650511470,5.385471,-1.227102,-8.107984,0.033441,-0.001058,-0.002662,0.018698,1.058720,2.573287,782.07,40.70,highres
8.655868,66650527439,5.338728,-1.083457,-8.173341,-0.000840,-0.017039,-0.019901,0.009271,1.055203,2.577753,782.07,40.70,highres
8.676121,66650547725,5.318378,-1.040363,-8.212841,-0.027951,-0.030990,-0.006021,0.005761,1.047536,2.579149,782.07,40.70,highres
8.691625,66650568354,5.287252,-1.063097,-8.264906,-0.004433,-0.006250,-0.002356,0.005761,1.047536,2.579149,782.07,40.70,highres
8.722351,66650588509,5.300736,-1.029626,-8.201930,-0.003367,0.011200,-0.001481,0.005761,1.047536,2.579149,782.07,40.70,highres
8.733334,66650609853,5.320812,-1.006655,-8.129821,0.003527,0.014352,0.004540,0.005761,1.047536,2.579149,782.07,40.70,highres
8.755429,66650636038,5.352251,-1.247777,-8.216691,-0.033504,-0.014007,-0.018070,0.005761,1.047536,2.579149,782.07,40.70,highres
8.776346,66650652736,5.277329,-1.013515,-8.177834,-0.025509,-0.013893,-0.029844,0.005761,1.047536,2.579149,782.07,40.70,highres
8.791950,66650672637,5.192688,-0.887140,-8.215235,-0.016041,0.000462,0.006196,0.010495,1.056333,2.578110,782.07,40.70,highres
8.822081,66650698432,5.321813,-1.159292,-8.079350,0.001757,0.014533,0.030274,0.006756,1.051594,2.578328,782.07,40.70,highres
8.843393,66650713580,5.400974,-1.203161,-8.016525,0.017251,0.012069,0.006196,0.006756,1.051594,2.578328,782.07,40.70,highres
8.857442,66650728857,5.387579,-1.137295,-8.148829,0.030690,-0.005341,-0.006937,0.006756,1.051594,2.578328,782.07,40.70,highres
8.878467,66650747842,5.347107,-1.059515,-8.305015,0.012059,-0.009311,-0.012740,0.006756,1.051594,2.578328,782.07,40.70,highres
8.894156,66650768433,5.309999,-1.029589,-8.272694,-0.007281,0.014842,-0.016176,0.006756,1.051594,2.578328,782.08,40.70,highres
8.921800,66650793276,5.286343,-0.988458,-8.141883,-0.035211,0.002185,-0.002674,0.006756,1.051594,2.578328,782.08,40.70,highres
8.931775,66650813453,5.251344,-0.986495,-8.142216,0.010837,0.020926,0.008945,0.007259,1.055727,2.579991,782.08,40.70,highres
8.955645,66650833303,5.303231,-1.175649,-8.131033,0.017461,0.026541,0.014395,0.011767,1.059136,2.572143,782.08,40.70,highres
8.982305,66650851144,5.420239,-1.258161,-8.147675,-0.028992,0.002944,-0.014335,0.011767,1.059136,2.572143,782.07,40.70,highres
8.992935,66650873188,5.371844,-0.994746,-8.153978,-0.031313,-0.017558,-0.014878,0.011767,1.059136,2.572143,782.07,40.70,highres
9.021723,66650888649,5.383076,-0.989520,-8.260212,0.013730,0.015664,-0.004388,0.011767,1.059136,2.572143,782.07,40.70,highres
9.033215,66650911506,5.390121,-1.078216,-8.073258,0.013891,0.050553,-0.002050,0.011767,1.059136,2.572143,782.07,40.70,highres
9.058854,66650927038,5.381897,-1.077591,-7.881768,0.009010,0.029989,-0.010868,0.011767,1.059136,2.572143,782.07,40.70,highres
9.078831,66650948074,5.339925,-1.025998,-8.002160,0.036018,-0.011144,-0.024754,0.008246,1.059213,2.582473,782.07,40.70,highres
9.096384,66650966925,5.247506,-0.953103,-8.159636,-0.017940,-0.043900,-0.019862,0.020601,1.064351,2.578744,782.07,40.70,highres
9.122594,66650987875,5.214218,-0.872776,-8.212538,-0.030702,-0.048101,0.005280,0.020601,1.064351,2.578744,782.07,40.70,highres
9.142338,66651010669,5.200594,-1.027815,-8.252935,0.021510,-0.012473,0.037045,0.020601,1.064351,2.578744,782.07,40.70,highres
9.158000,66651033606,5.335758,-1.173915,-8.336684,0.005014,0.002541,0.025831,0.020601,1.064351,2.578744,782.07,40.70,highres
9.179910,66651055922,5.386580,-1.180726,-8.317240,-0.003489,0.013472,0.016211,0.020601,1.064351,2.578744,782.07,40.70,highres
9.192969,66651076667,5.434981,-1.244548,-8.306028,-0.026138,0.023603,-0.009227,0.020601,1.064351,2.578744,782.07,40.70,highres
9.225543,66651093551,5.396427,-1.047637,-8.179103,-0.022023,0.037447,-0.029323,0.009124,1.054787,2.578428,782.07,40.70,highres
9.232567,66651113922,5.336334,-0.954175,-8.081166,-0.010238,0.036503,-0.013657,0.011064,1.044536,2.588458,782.07,40.70,highres
9.262439,66651133885,5.300375,-0.947967,-7.910530,0.000557,0.025687,0.000393,0.011064,1.044536,2.588458,782.07,40.70,highres
9.276759,66651152325,5.343321,-1.180239,-8.033751,0.008699,-0.008395,-0.007243,0.011064,1.044536,2.588458,782.07,40.70,highres
9.285265,66651176793,5.257870,-0.974753,-8.174849,-0.027521,-0.040771,-0.022693,0.011064,1.044536,2.588458,782.07,40.70,highres
9.326347,66651191562,5.255439,-0.910767,-8.286495,0.000405,-0.018602,0.000780,0.011064,1.044536,2.588458,782.07,40.70,highres
9.342182,66651211132,5.326282,-1.128212,-8.330582,0.037300,0.033612,0.014127,0.011064,1.044536,2.588458,782.07,40.70,highres
9.356775,66651233715,5.403260,-1.118441,-8.150811,0.008629,0.042417,-0.016211,0.013667,1.057991,2.576944,782.07,40.70,highres
9.380554,66651253787,5.373206,-0.945152,-8.082765,-0.027790,0.006755,-0.009442,0.019602,1.061176,2.572422,782.07,40.70,highres
9.391214,66651271370,5.349372,-0.916549,-8.069876,-0.013387,0.013789,-0.002782,0.019602,1.061176,2.572422,782.07,40.70,highres
9.421983,66651294035,5.319366,-0.939327,-7.954594,0.002148,0.020460,0.004324,0.019602,1.061176,2.572422,782.07,40.70,highres
9.432685,66651313908,5.293861,-0.939190,-7.909997,0.025444,-0.011679,0.013189,0.019602,1.061176,2.572422,782.07,40.70,highres
9.461688,66651330948,5.294311,-1.050114,-8.098487,0.031638,-0.026198,0.019352,0.019602,1.061176,2.572422,782.07,40.70,highres
9.477997,66651354547,5.310290,-1.026166,-8.230753,0.000957,-0.026416,0.022036,0.019602,1.061176,2.572422,782.07,40.70,highres
9.500662,66651368844,5.328024,-1.055425,-8.270862,0.001369,-0.014361,0.031259,0.012576,1.051465,2.583535,782.07,40.70,highres
9.526188,66651391152,5.386610,-1.217526,-8.271498,0.004513,0.008828,0.025792,0.014938,1.045628,2.582229,782.07,40.70,highres
9.544634,66651408596,5.427191,-1.253017,-8.191954,0.007186,0.026572,0.013963,0.014938,1.045628,2.582229,782.07,40.70,highres
9.555832,66651428672,5.454050,-1.147346,-8.146216,0.006256,0.028257,-0.006326,0.014938,1.045628,2.582229,782.07,40.70,highres
9.582630,66651448734,5.453645,-1.037969,-8.052437,0.003864,0.029106,-0.011280,0.014938,1.045628,2.582229,782.07,40.70,highres
9.592412,66651467529,5.385846,-1.005186,-7.965644,-0.013292,0.009320,-0.009381,0.014938,1.045628,2.582229,782.07,40.70,highres
9.624682,66651488769,5.312735,-0.961490,-7.983720,-0.009627,-0.020192,-0.011003,0.014938,1.045628,2.582229,782.06,40.70,highres
9.631410,66651509351,5.223963,-0.967634,-8.074726,0.004950,-0.035937,-0.000544,0.011131,1.053687,2.579890,782.06,40.70,highres
9.656289,66651514125,5.239005,-1.090413,-8.174222,0.005339,-0.039206,0.005662,-0.021120,1.061812,2.592443,782.06,40.70,highres
9.676009,66651543866,5.312438,-1.066592,-8.394793,0.022521,-0.018440,-0.000906,-0.021120,1.061812,2.592443,782.06,40.70,highres
9.691979,66651559091,5.314734,-0.979831,-8.310179,0.005683,0.003580,-0.000141,-0.021120,1.061812,2.592443,782.06,40.70,highres
9.722280,66651596388,5.437757,-1.161830,-8.166461,0.016464,0.030228,0.009483,-0.021120,1.061812,2.592443,782.06,40.70,highres
9.733183,66651615054,5.405746,-1.129556,-8.046418,-0.006111,0.020166,-0.024498,-0.021120,1.061812,2.592443,782.06,40.70,highres
9.756983,66651636441,5.317021,-0.902373,-7.955123,-0.006229,-0.017974,-0.010122,-0.021120,1.061812,2.592443,782.06,40.70,highres
9.777731,66651649121,5.286676,-0.930647,-8.008334,0.010113,-0.018933,0.009065,-0.021120,1.061812,2.592443,782.06,40.70,highres
9.792313,66651674159,5.332522,-1.156587,-8.132208,0.011916,-0.011177,0.016776,0.029544,1.060205,2.567429,782.06,40.70,highres
9.822020,66651697971,5.366349,-1.201876,-8.192002,-0.023678,-0.029192,0.020110,0.029544,1.060205,2.567429,782.07,40.70,highres
9.833256,66651714153,5.406241,-1.266819,-8.257352,0.003379,-0.013046,0.014200,0.029544,1.060205,2.567429,782.07,40.70,highres
9.855458,66651732603,5.453646,-1.344413,-8.311000,0.019630,0.016171,-0.009812,0.029544,1.060205,2.567429,782.07,40.70,highres
9.876051,66651757462,5.403848,-1.104782,-8.041774,-0.001710,0.018806,-0.027199,0.029544,1.060205,2.567429,782.07,40.70,highres
9.900068,66651774536,5.374517,-1.046715,-8.040312,0.019552,0.005666,-0.018849,0.029544,1.060205,2.567429,782.06,40.70,highres
9.921995,66651797382,5.370597,-1.168817,-8.079067,-0.009128,-0.008551,-0.032203,0.029544,1.060205,2.567429,782.06,40.70,highres
9.944234,66651813473,5.335270,-1.011588,-8.021549,0.002774,-0.007405,-0.037507,0.019224,1.067480,2.577513,782.06,40.70,highres
9.955274,66651832418,5.290360,-0.877104,-7.996662,0.032099,-0.009840,-0.021773,0.019224,1.067480,2.577513,782.06,40.70,highres
9.983614,66651853098,5.297689,-1.040288,-8.069069,0.036237,-0.027999,-0.011722,0.019224,1.067480,2.577513,782.07,40.70,highres
9.991146,66651872637,5.313590,-1.071354,-8.234840,0.022348,-0.034545,-0.026098,0.019224,1.067480,2.577513,782.07,40.70,highres
10.023836,66651891756,5.243066,-0.946993,-8.334605,-0.002326,-0.041109,-0.013324,0.019224,1.067480,2.577513,782.07,40.70,highres
10.033680,66651912580,5.252117,-0.995299,-8.450053,-0.011295,-0.013079,0.000246,0.019224,1.067480,2.577513,782.07,40.70,highres
10.055874,66651934620,5.278876,-1.029589,-8.352897,-0.025206,0.025197,0.015054,0.019224,1.067480,2.577513,782.08,40.70,highres
10.083384,66651957265,5.336334,-1.107775,-8.164227,-0.030264,0.030646,0.013653,0.017597,1.036896,2.590992,782.08,40.70,highres
10.093568,66651974448,5.329485,-1.125762,-8.102409,-0.013439,0.022908,0.009705,0.017597,1.036896,2.590992,782.08,40.70,highres
10.122666,66651992080,5.300760,-1.019826,-8.107141,-0.007363,0.020482,0.007638,0.017597,1.036896,2.590992,782.08,40.70,highres
10.131941,66652011728,5.280073,-1.022407,-8.050042,-0.019402,0.008093,0.031242,0.017597,1.036896,2.590992,782.07,40.70,highres
10.156629,66652027724,5.407338,-1.232279,-8.108610,0.013584,0.020005,0.029715,0.017597,1.036896,2.590992,782.07,40.70,highres
10.183270,66652047040,5.508093,-1.217214,-8.063501,0.011970,0.027641,-0.012968,0.017597,1.036896,2.590992,782.07,40.70,highres
10.192000,66652066736,5.442858,-0.927367,-8.057238,-0.012190,-0.008095,-0.033345,0.017597,1.036896,2.590992,782.07,40.70,highres
10.223577,66652089467,5.326389,-0.964119,-8.181091,-0.000458,-0.021633,-0.016504,0.024642,1.055109,2.569701,782.07,40.70,highres
10.242360,66652112388,5.202265,-1.091836,-8.249951,0.018166,0.009620,-0.013351,0.024642,1.055109,2.569701,782.07,40.70,highres
10.255218,66652126716,5.220764,-1.139718,-8.209895,0.007433,0.013024,-0.008378,0.024642,1.055109,2.569701,782.07,40.70,highres
10.276997,66652142188,5.266329,-1.070817,-8.193640,0.005643,0.017867,-0.007548,0.024642,1.055109,2.569701,782.07,40.70,highres
10.285873,66652167015,5.352739,-1.114462,-8.165353,-0.020577,0.015056,0.012799,0.024642,1.055109,2.569701,782.07,40.70,highres
10.285873,66652184345,5.491574,-1.174271,-8.102807,-0.036492,0.012678,0.012291,0.024642,1.055109,2.569701,782.07,40.70,highres
10.331939,66652212192,5.463222,-0.930234,-8.014132,-0.018926,0.016633,-0.011775,0.024642,1.055109,2.569701,782.07,40.70,highres
10.355022,66652227257,5.438083,-0.962554,-7.967445,-0.017429,0.008588,-0.002339,-0.004261,1.061325,2.579859,782.07,40.70,highres
10.376583,66652248242,5.403019,-1.158595,-8.033854,0.034659,0.013896,-0.013046,-0.004261,1.061325,2.579859,782.07,40.70,highres
10.395344,66652269678,5.257254,-0.982446,-8.032860,-0.018371,-0.027527,-0.033068,-0.004261,1.061325,2.579859,782.07,40.70,highres
10.425084,66652289816,5.208434,-0.889443,-8.242126,-0.010204,-0.048593,-0.007942,-0.004261,1.061325,2.579859,782.07,40.70,highres
10.435760,66652309865,5.253554,-1.053043,-8.341361,0.011464,-0.012857,0.021989,-0.004261,1.061325,2.579859,782.07,40.70,highres
10.455960,66652334671,5.353094,-1.099018,-8.239178,0.005948,0.022448,0.023606,-0.004261,1.061325,2.579859,782.07,40.70,highres
10.477795,66652352789,5.387363,-1.106987,-8.143361,0.012053,0.019704,0.017604,-0.004261,1.061325,2.579859,782.07,40.70,highres
10.493661,66652375091,5.442955,-1.100744,-8.225314,-0.028436,0.005138,-0.000210,-0.013192,1.041836,2.564759,782.07,40.70,highres
10.522825,66652390460,5.403098,-1.047532,-8.228417,-0.020930,0.013896,-0.008159,-0.013192,1.041836,2.564759,782.07,40.70,highres
10.531622,66652412136,5.319551,-0.999058,-8.110927,-0.020445,0.024355,-0.010887,-0.013192,1.041836,2.564759,782.07,40.70,highres
10.558386,66652432357,5.284582,-0.986715,-8.032475,-0.013811,0.011012,0.010437,-0.013192,1.041836,2.564759,782.07,40.70,highres
10.575714,66652447537,5.318530,-1.034377,-8.011659,0.007170,0.022754,0.013221,-0.013192,1.041836,2.564759,782.07,40.70,highres
10.597933,66652468410,5.412945,-1.138521,-7.967447,0.029573,0.015641,0.019186,-0.013192,1.041836,2.564759,782.07,40.70,highres
10.625486,66652482221,5.514694,-1.219681,-7.997852,0.003624,-0.012141,-0.001051,-0.013192,1.041836,2.564759,782.07,40.70,highres
10.632049,66652509569,5.420413,-0.893356,-8.202979,0.005631,-0.043122,-0.020052,0.009561,1.057053,2.602755,782.07,40.70,highres
10.656454,66652526428,5.310946,-1.081386,-8.299763,0.005430,-0.031308,-0.002759,0.009561,1.057053,2.602755,782.07,40.70,highres
10.674986,66652553479,5.317108,-1.203768,-8.300641,-0.008837,-0.000797,-0.011362,0.009561,1.057053,2.602755,782.07,40.70,highres
10.691362,66652576868,5.231099,-0.952772,-8.190045,-0.006920,0.006287,-0.006260,0.009561,1.057053,2.602755,782.06,40.70,highres
10.724914,66652594972,5.307116,-1.044573,-8.219605,0.005625,0.020974,0.016868,0.009561,1.057053,2.602755,782.06,40.70,highres
10.732972,66652612211,5.344361,-1.138109,-8.128224,0.007838,0.035162,0.009144,0.009561,1.057053,2.602755,782.06,40.70,highres
10.755836,66652635925,5.417017,-1.012107,-7.994501,0.006454,0.014583,-0.005009,0.007207,1.057050,2.580316,782.06,40.70,highres
10.775333,66652652440,5.400325,-0.976697,-8.021535,-0.012722,-0.012556,-0.003048,0.004772,1.043469,2.580765,782.06,40.70,highres
10.802389,66652672851,5.394701,-0.971553,-8.103290,-0.009624,-0.015646,-0.000217,0.004772,1.043469,2.580765,782.06,40.70,highres
10.822090,66652692627,5.333383,-1.072552,-8.121097,0.006793,-0.008154,0.006683,0.004772,1.043469,2.580765,782.06,40.70,highres
10.835162,66652712445,5.340148,-1.138219,-8.124710,-0.007437,-0.018125,-0.002681,0.004772,1.043469,2.580765,782.06,40.70,highres
10.859948,66652732539,5.319041,-1.023785,-8.210886,0.009161,-0.016466,0.000633,0.004772,1.043469,2.580765,782.06,40.70,highres
10.875687,66652752473,5.322009,-0.979882,-8.196026,0.013402,0.006359,0.013918,0.004772,1.043469,2.580765,782.06,40.70,highres
10.891836,66652772662,5.415302,-1.144184,-8.185538,0.004554,0.008276,0.011887,0.012257,1.055196,2.581474,782.06,40.70,highres
10.924785,66652795210,5.388673,-1.137654,-8.175607,-0.010813,-0.008119,-0.008384,0.012257,1.055196,2.581474,782.06,40.70,highres
10.932734,66652805861,5.394562,-1.081473,-8.275550,0.003504,0.000147,-0.017321,0.015452,1.041726,2.577205,782.06,40.70,highres
10.956325,66652835110,5.298181,-1.040821,-8.231180,-0.048231,0.013907,-0.008753,0.015452,1.041726,2.577205,782.06,40.70,highres
10.976604,66652853326,5.326152,-0.960782,-8.137216,0.000791,0.046836,-0.000762,0.015452,1.041726,2.577205,782.06,40.70,highres
10.994218,66652874191,5.314061,-0.914117,-7.925506,0.019611,0.045907,0.015010,0.015452,1.041726,2.577205,782.06,40.70,highres
11.026175,66652893076,5.395524,-1.120902,-7.937996,0.018844,-0.007170,0.015119,0.015452,1.041726,2.577205,782.07,40.70,highres
11.040358,66652912611,5.357447,-1.101741,-8.112263,0.007174,-0.028336,-0.006037,0.006801,1.056768,2.579713,782.07,40.70,highres
11.056561,66652935952,5.355487,-1.040363,-8.254738,-0.021853,-0.023281,0.009654,0.008377,1.053313,2.575714,782.07,40.70,highres
11.076178,66652954976,5.457227,-1.161109,-8.302154,-0.001396,0.017211,0.002466,0.008377,1.053313,2.575714,782.07,40.70,highres
11.094193,66652961395,5.485966,-1.155279,-8.287059,-0.002699,0.026814,-0.004282,0.008377,1.053313,2.575714,782.07,40.70,highres
11.124843,66652992671,5.412946,-0.949387,-7.969840,-0.022179,0.007990,-0.006705,0.008377,1.053313,2.575714,782.07,40.70,highres
11.131918,66653016089,5.310704,-0.924840,-8.058719,0.045076,0.004136,-0.007153,0.008377,1.053313,2.575714,782.07,40.70,highres
11.157787,66653026081,5.232678,-1.015214,-8.137154,0.036269,-0.001775,-0.006609,0.008377,1.053313,2.575714,782.07,40.70,highres
11.177130,66653047215,5.208016,-1.059568,-8.200871,-0.015746,-0.019103,0.009573,0.008962,1.051844,2.579009,782.07,40.70,highres
11.194219,66653068055,5.287676,-1.090764,-8.259542,-0.002910,-0.000159,0.021163,0.010722,1.052532,2.585633,782.07,40.70,highres
11.222697,66653084848,5.441674,-1.130141,-8.157778,0.002706,0.017744,0.022256,0.010722,1.052532,2.585633,782.07,40.70,highres
11.232167,66653103213,5.513498,-1.070289,-8.081167,-0.016020,0.007155,0.001276,0.010722,1.052532,2.585633,782.07,40.70,highres
11.256096,66653132500,5.401987,-1.019772,-8.184884,-0.003542,-0.000812,-0.001439,0.010722,1.052532,2.585633,782.06,40.70,highres
11.276583,66653149894,5.360299,-1.093885,-8.131973,0.002840,0.025798,-0.005371,0.010722,1.052532,2.585633,782.06,40.70,highres
11.288651,66653167159,5.304837,-1.003181,-7.968236,-0.008989,0.025937,-0.008779,0.010722,1.052532,2.585633,782.06,40.70,highres
11.288651,66653191025,5.328561,-0.961922,-7.975199,-0.020197,-0.018148,0.003570,0.012886,1.051745,2.581550,782.06,40.70,highres
11.332470,66653207822,5.316636,-1.009925,-8.112094,-0.003561,-0.033756,0.011618,0.012886,1.051745,2.581550,782.06,40.70,highres
11.355953,66653228581,5.318968,-1.113750,-8.167885,0.006253,-0.023677,0.023912,0.015495,1.055653,2.580916,782.06,40.70,highres
11.375630,66653246692,5.420817,-1.244601,-8.261055,0.017263,-0.013065,0.021845,0.015495,1.055653,2.580916,782.06,40.70,highres
11.391988,66653268171,5.494254,-1.160190,-8.251496,-0.003997,0.001662,-0.005034,0.015495,1.055653,2.580916,782.06,40.70,highres
11.423722,66653288185,5.423718,-0.935022,-8.170944,-0.038337,-0.007121,-0.009497,0.015495,1.055653,2.580916,782.05,40.70,highres
11.433418,66653308428,5.339292,-0.932698,-8.084125,-0.006575,0.009310,0.003143,0.015495,1.055653,2.580916,782.05,40.70,highres
11.462820,66653327314,5.295586,-1.072188,-8.003540,0.005031,0.009615,0.004059,0.013588,1.055540,2.574553,782.05,40.70,highres
11.476525,66653346794,5.300423,-1.145703,-8.046452,0.005988,-0.011338,-0.007397,0.013588,1.055540,2.574553,782.05,40.70,highres
11.501287,66653368596,5.303195,-0.946980,-8.199985,0.010847,-0.015014,-0.010796,0.008977,1.056047,2.583684,782.06,40.70,highres
11.524782,66653395737,5.360377,-0.903457,-8.134287,0.011584,0.013252,0.025826,0.008977,1.056047,2.583684,782.06,40.70,highres
11.532235,66653417476,5.405988,-1.059651,-8.048171,0.004367,-0.014507,0.024487,0.008977,1.056047,2.583684,782.06,40.70,highres
11.555496,66653433557,5.392653,-1.249772,-8.239011,-0.022298,-0.051614,0.003316,0.008977,1.056047,2.583684,782.06,40.70,highres
11.575452,66653451401,5.343065,-1.178913,-8.437270,-0.029922,-0.031198,-0.022796,0.008977,1.056047,2.583684,782.07,40.70,highres
11.591885,66653473577,5.269236,-1.027216,-8.420004,-0.008029,0.040185,-0.008353,0.013842,1.053899,2.579549,782.07,40.70,highres
11.623088,66653486452,5.337358,-1.031556,-8.200877,0.008589,0.073542,0.003574,0.013842,1.053899,2.579549,782.07,40.70,highres
11.631415,66653508345,5.433857,-0.960743,-7.908250,0.013889,0.063066,0.006197,0.006165,1.053872,2.585298,782.07,40.70,highres
11.654909,66653529293,5.402172,-1.058318,-7.833377,-0.036202,-0.004435,0.001005,0.006165,1.053872,2.585298,782.06,40.70,highres
11.676272,66653551380,5.384891,-1.057032,-8.017889,-0.019288,-0.040653,-0.010725,0.006165,1.053872,2.585298,782.06,40.70,highres
11.692634,66653569538,5.381831,-1.013674,-8.187720,0.026435,-0.010261,-0.024069,0.006165,1.053872,2.585298,782.06,40.70,highres
11.724881,66653590322,5.321970,-0.943402,-8.163763,0.003857,-0.009057,-0.018355,0.006165,1.053872,2.585298,782.06,40.70,highres
11.732609,66653611116,5.323620,-0.993763,-8.183228,0.016437,-0.019941,0.015072,0.013631,1.058531,2.578327,782.07,40.70,highres
11.755785,66653626136,5.305791,-1.117411,-8.240990,0.027328,-0.009933,0.016276,0.013631,1.058531,2.578327,782.07,40.70,highres
11.775541,66653654165,5.347430,-1.135258,-8.228624,0.017988,0.003844,-0.009518,0.012313,1.046646,2.584728,782.07,40.70,highres
11.791926,66653675551,5.323066,-1.078668,-8.277746,0.016552,0.012162,-0.005471,0.012313,1.046646,2.584728,782.07,40.70,highres
11.823754,66653686259,5.369899,-1.129040,-8.288160,-0.015880,0.012066,-0.004187,0.012313,1.046646,2.584728,782.06,40.70,highres
11.834296,66653713713,5.389553,-0.953915,-8.100909,-0.018811,0.034382,-0.004798,0.012313,1.046646,2.584728,782.06,40.70,highres
11.859920,66653731095,5.351407,-0.930827,-7.976104,0.014401,0.043339,0.010022,0.012313,1.046646,2.584728,782.06,40.70,highres
11.876775,66653750999,5.422105,-1.157465,-7.910874,0.016025,0.020175,0.003140,0.010136,1.054020,2.578458,782.06,40.70,highres
11.892343,66653771109,5.389378,-0.948028,-7.897620,0.018068,-0.011541,-0.005185,0.010136,1.054020,2.578458,782.06,40.70,highres
11.923881,66653794751,5.366144,-0.954334,-8.058121,-0.011270,-0.052709,0.019986,0.010025,1.061769,2.577337,782.06,40.70,highres
11.933203,66653808697,5.366787,-1.171068,-8.249755,-0.011142,-0.051198,0.024326,0.010025,1.061769,2.577337,782.06,40.70,highres
11.956686,66653833916,5.321224,-1.164510,-8.384469,-0.006991,-0.008022,-0.013313,0.010025,1.061769,2.577337,782.06,40.70,highres
11.977002,66653848513,5.283664,-1.014211,-8.354829,-0.010477,0.009773,-0.004752,0.010025,1.061769,2.577337,782.07,40.70,highres
11.993103,66653871230,5.345595,-1.116357,-8.305339,0.012905,0.043043,-0.000642,0.010025,1.061769,2.577337,782.07,40.70,highres
12.024508,66653894114,5.413486,-1.047098,-8.140124,-0.018838,0.045378,-0.015303,0.011574,1.057262,2.581196,782.07,40.70,highres
12.032926,66653917311,5.424089,-0.943297,-7.938634,-0.032000,0.016208,-0.012534,0.011574,1.057262,2.581196,782.07,40.70,highres
12.059461,66653934072,5.363866,-0.940866,-7.969134,-0.000236,0.007928,-0.012088,0.014391,1.056367,2.582734,782.07,40.70,highres
12.076097,66653947913,5.305211,-0.919461,-7.917171,-0.011464,-0.001080,-0.006020,0.014391,1.056367,2.582734,782.07,40.70,highres
12.096851,66653965331,5.301111,-0.985354,-7.949546,0.001831,-0.011651,0.007127,0.014391,1.056367,2.582734,782.07,40.70,highres
12.122105,66653988025,5.301435,-1.084283,-8.070528,0.028243,-0.022766,0.015666,0.014391,1.056367,2.582734,782.07,40.70,highres
12.132834,66654004605,5.390202,-1.106200,-8.222417,0.011737,-0.039362,0.015417,0.014391,1.056367,2.582734,782.07,40.70,highres
12.155614,66654018962,5.453719,-1.084433,-8.269128,-0.013768,-0.040898,0.017498,0.008392,1.058537,2.579577,782.07,40.70,highres
12.177268,66654052422,5.448857,-1.048673,-8.313208,0.009611,-0.005662,0.017804,0.008392,1.058537,2.579577,782.07,40.70,highres
12.202238,66654071542,5.449036,-1.329989,-8.318781,-0.000330,0.010999,0.004472,0.012650,1.053533,2.577753,782.07,40.70,highres
12.224847,66654092333,5.341295,-1.147079,-8.198136,-0.007667,0.017071,-0.034077,0.012650,1.053533,2.577753,782.07,40.70,highres
12.233797,66654114093,5.342042,-1.006623,-8.179993,-0.006745,0.027538,-0.027385,0.012650,1.053533,2.577753,782.07,40.70,highres
12.255485,66654131799,5.330349,-0.927840,-8.065604,-0.007187,0.035877,-0.016405,0.012650,1.053533,2.577753,782.07,40.70,highres
12.279576,66654151598,5.367134,-0.852158,-7.897074,-0.007086,0.019213,-0.003865,0.012650,1.053533,2.577753,782.07,40.70,highres
12.292022,66654174572,5.315869,-0.959467,-7.871044,0.000056,-0.029282,0.015549,0.017205,1.058888,2.578821,782.07,40.70,highres
12.292022,66654192185,5.354920,-1.074493,-8.046416,0.004733,-0.043998,0.000805,0.017205,1.058888,2.578821,782.07,40.70,highres
12.332714,66654211627,5.354022,-1.060955,-8.290725,0.010163,-0.040281,-0.006690,0.017196,1.058992,2.576754,782.07,40.70,highres
12.355511,66654229163,5.343516,-0.993678,-8.382821,0.004116,-0.018188,0.001461,0.017196,1.058992,2.576754,782.07,40.70,highres
12.380110,66654254986,5.364509,-1.084896,-8.353827,-0.000050,0.019847,0.016441,0.017196,1.058992,2.576754,782.07,40.70,highres
12.393111,66654274323,5.418007,-1.169111,-8.215663,0.023514,0.055843,-0.002004,0.017196,1.058992,2.576754,782.07,40.70,highres
12.422757,66654292469,5.403629,-1.065022,-8.042288,-0.005022,0.038422,-0.008918,0.017196,1.058992,2.576754,782.07,40.70,highres
12.432550,66654314157,5.391517,-1.066402,-7.987556,-0.030400,-0.007189,-0.001133,0.013693,1.056591,2.580634,782.07,40.70,highres
12.455586,66654330439,5.415768,-1.185206,-8.100081,-0.001554,-0.008431,-0.015365,0.013693,1.056591,2.580634,782.07,40.70,highres
12.476128,66654351650,5.299560,-0.914561,-8.072564,-0.017372,-0.007788,-0.026225,0.018880,1.054703,2.576291,782.07,40.70,highres
12.493866,66654367815,5.336440,-0.900467,-8.082807,0.003465,-0.002925,-0.003154,0.018880,1.054703,2.576291,782.07,40.70,highres
12.522944,66654387232,5.417733,-1.152885,-8.139822,0.036614,0.008457,0.001044,0.018880,1.054703,2.576291,782.07,40.70,highres
12.534457,66654409713,5.323630,-0.926434,-8.176889,0.009509,-0.004094,-0.018991,0.018880,1.054703,2.576291,782.07,40.70,highres
12.555269,66654432364,5.256698,-1.027105,-8.204516,-0.025056,-0.018605,0.008104,0.018880,1.054703,2.576291,782.07,40.70,highres
12.576662,66654446320,5.376748,-1.202706,-8.305243,-0.007493,0.004112,0.006197,0.008498,1.052327,2.578685,782.07,40.70,highres
12.591929,66654469148,5.399279,-0.993055,-8.120086,-0.011204,0.034140,-0.016851,0.008498,1.052327,2.578685,782.07,40.70,highres
12.623590,66654488012,5.442512,-0.956845,-8.026304,-0.005871,0.028982,-0.003922,0.012815,1.049544,2.578369,782.07,40.70,highres
12.631976,66654502641,5.508096,-1.134492,-8.028438,0.011749,0.026409,0.004059,0.012815,1.049544,2.578369,782.07,40.70,highres
12.658327,66654531966,5.451251,-0.983908,-7.943486,-0.016175,-0.002712,-0.031972,0.012815,1.049544,2.578369,782.07,40.70,highres
12.676578,66654555406,5.282945,-0.878755,-7.960495,-0.003853,-0.049184,-0.000113,0.012815,1.049544,2.578369,782.07,40.70,highres
12.697624,66654573044,5.262329,-1.055983,-8.175387,0.007862,-0.051605,0.013306,0.012815,1.049544,2.578369,782.08,40.70,highres
12.723193,66654592673,5.354787,-1.293079,-8.389553,0.012329,-0.022299,-0.003219,0.014607,1.051772,2.574069,782.08,40.70,highres
12.740026,66654609578,5.405113,-1.210197,-8.413296,0.004419,-0.001427,-0.024259,0.014607,1.051772,2.574069,782.08,40.70,highres
12.759485,66654632089,5.445074,-1.062796,-8.446102,-0.000428,0.037818,-0.024704,0.010939,1.056989,2.580979,782.08,40.70,highres
12.772056,66654642382,5.441389,-1.090134,-8.334492,-0.021633,0.052696,-0.025128,0.010939,1.056989,2.580979,782.07,40.70,highres
12.792126,66654674117,5.438083,-1.005648,-7.858515,-0.003218,0.061528,-0.046642,0.010939,1.056989,2.580979,782.07,40.70,highres
12.824515,66654691601,5.349173,-0.861245,-7.770791,0.007504,0.024147,-0.049791,0.010939,1.056989,2.580979,782.07,40.70,highres
12.833949,66654711599,5.298315,-0.760266,-7.836044,-0.012851,-0.030384,-0.034612,0.010939,1.056989,2.580979,782.07,40.70,highres
12.855054,66654734028,5.184309,-0.589075,-7.917171,0.016330,-0.049038,0.013529,0.018566,1.052546,2.581687,782.07,40.70,highres
12.875430,66654757189,5.224528,-0.920981,-8.109428,0.031240,-0.051358,0.062741,0.018566,1.052546,2.581687,782.07,40.70,highres
12.893014,66654774911,5.367373,-1.248564,-8.275435,0.019885,-0.055787,0.040789,0.016205,1.061707,2.578628,782.07,40.70,highres
12.923503,66654794952,5.448892,-1.204448,-8.515534,0.019975,-0.039062,0.005058,0.016205,1.061707,2.578628,782.07,40.70,highres
12.931557,66654817366,5.446455,-1.170879,-8.668520,-0.009355,0.002449,0.000196,0.016205,1.061707,2.578628,782.07,40.70,highres
12.956248,66654834642,5.451895,-1.218833,-8.464404,-0.053953,0.045650,-0.013455,0.016205,1.061707,2.578628,782.07,40.70,highres
12.976040,66654852247,5.410920,-1.076489,-8.208851,-0.028206,0.078194,-0.024766,0.016205,1.061707,2.578628,782.07,40.70,highres
12.995945,66654866477,5.361472,-1.057121,-7.950687,-0.007478,0.077048,-0.020326,0.010626,1.052342,2.574161,782.07,40.70,highres
13.023628,66654887736,5.600821,-1.066738,-7.998286,0.015414,0.049311,-0.022513,0.010626,1.052342,2.574161,782.08,40.70,highres
13.042195,66654909791,5.635546,-1.149141,-8.014565,-0.018650,0.012296,-0.031838,0.008061,1.054487,2.576213,782.08,40.70,highres
13.057056,66654928591,5.647567,-1.241467,-8.085956,-0.064853,-0.021279,-0.045760,0.008061,1.054487,2.576213,782.08,40.70,highres
13.077973,66654949881,5.499112,-1.159909,-8.021234,-0.052873,-0.022027,-0.075572,0.008061,1.054487,2.576213,782.08,40.70,highres
13.091301,66654968200,5.433294,-1.119367,-8.060817,0.007168,0.008993,-0.100398,0.008061,1.054487,2.576213,782.07,40.70,highres
13.123408,66654990742,5.183528,-0.742655,-7.964389,0.039734,-0.000247,-0.105399,0.008061,1.054487,2.576213,782.07,40.70,highres
13.132593,66655007908,5.102734,-0.611995,-8.104993,0.002347,-0.051123,-0.074570,0.019054,1.052710,2.583680,782.07,40.70,highres
13.155507,66655027989,5.157553,-0.711898,-8.068795,-0.035040,-0.067208,-0.026931,0.019054,1.052710,2.583680,782.07,40.70,highres
13.175932,66655049872,5.462936,-0.764576,-8.335160,0.039788,-0.021046,-0.030973,0.018011,1.053502,2.572413,782.06,40.70,highres
13.203883,66655068396,5.809564,-0.879323,-8.512039,0.036794,-0.007805,-0.025567,0.018011,1.053502,2.572413,782.06,40.70,highres
13.224976,66655087655,5.888125,-1.129450,-8.572524,-0.033259,-0.037983,-0.032150,0.018011,1.053502,2.572413,782.06,40.70,highres
13.244298,66655107914,5.700237,-1.181615,-8.446265,-0.044756,-0.007500,-0.069549,0.018011,1.053502,2.572413,782.06,40.70,highres
13.257347,66655128061,5.452971,-1.440258,-8.076314,-0.029179,0.016629,-0.095205,0.018011,1.053502,2.572413,782.05,40.70,highres
13.284360,66655147735,5.099341,-1.078851,-7.991488,-0.141273,-0.090882,-0.159652,0.020368,1.046798,2.577002,782.05,40.70,highres
13.289695,66655166153,4.871987,-0.567525,-8.131446,-0.119572,-0.108428,-0.138670,0.020368,1.046798,2.577002,782.05,40.70,highres
13.289695,66655182473,4.912821,-0.697158,-8.207291,-0.038027,-0.035128,-0.087632,0.023300,1.036965,2.578819,782.05,40.70,highres
13.332440,66655207611,5.020969,-0.538118,-7.890584,-0.005786,0.068146,-0.048054,0.023300,1.036965,2.578819,782.05,40.70,highres
13.361919,66655226957,5.239373,-0.499296,-7.665790,0.038932,0.081992,-0.024956,0.023300,1.036965,2.578819,782.05,40.70,highres
13.376489,66655252559,5.440093,-0.499743,-7.701540,-0.023071,-0.058573,0.002035,0.023300,1.036965,2.578819,782.05,40.70,highres
13.392001,66655273519,5.530256,-0.646533,-8.014132,0.012970,-0.108903,-0.005103,0.023300,1.036965,2.578819,782.05,40.70,highres
13.425254,66655292703,5.476624,-0.819389,-8.489841,-0.008489,-0.111958,-0.017771,0.018555,1.044430,2.579468,782.06,40.70,highres
13.432610,66655315632,5.312850,-0.835807,-8.227484,-0.043232,-0.151166,-0.001322,0.018555,1.044430,2.579468,782.06,40.70,highres
13.458635,66655332813,5.287306,-1.011481,-8.651177,0.000671,-0.106871,-0.005082,0.018455,1.038993,2.586535,782.06,40.70,highres
13.478421,66655352817,5.164985,-1.257058,-8.628732,0.000315,0.000225,-0.040511,0.018455,1.038993,2.586535,782.06,40.70,highres
13.495891,66655377120,5.182732,-0.948382,-8.531601,-0.036323,0.061189,-0.077915,0.018455,1.038993,2.586535,782.06,40.70,highres
13.523422,66655392834,5.221839,-0.624936,-8.318956,-0.040827,0.064067,-0.043657,0.018455,1.038993,2.586535,782.06,40.70,highres
13.538284,66655412834,5.399567,-0.837175,-8.293095,-0.034640,0.082164,-0.006908,0.018455,1.038993,2.586535,782.06,40.70,highres
13.558880,66655436325,5.531044,-0.960212,-7.986815,-0.051339,0.100241,-0.042243,0.018513,1.040911,2.579819,782.06,40.70,highres
13.577592,66655453911,5.487162,-0.806938,-7.701701,-0.034658,0.072834,-0.070851,0.018513,1.040911,2.579819,782.07,40.70,highres
13.591195,66655475296,5.343516,-0.377197,-7.631075,-0.043461,-0.055974,-0.047030,0.022569,1.044943,2.575664,782.07,40.70,highres
13.624123,66655491430,5.324364,-0.377197,-7.829785,-0.026825,-0.082448,-0.016370,0.022569,1.044943,2.575664,782.07,40.70,highres
13.632160,66655509175,5.214498,-0.702262,-8.216796,0.008351,-0.045997,-0.020033,0.022569,1.044943,2.575664,782.07,40.70,highres
13.656235,66655533508,5.112486,-0.482264,-7.957891,0.058238,0.032612,-0.021004,0.022569,1.044943,2.575664,782.06,40.70,highres
13.676245,66655548111,5.153179,-0.356774,-7.906543,0.065196,-0.014843,0.020053,0.022569,1.044943,2.575664,782.06,40.70,highres
13.692893,66655572051,5.291523,-0.963382,-8.254625,0.020769,-0.105280,0.055786,0.024489,1.037774,2.576884,782.06,40.70,highres
13.724208,66655590580,5.433818,-1.081805,-8.401939,-0.035460,-0.101452,-0.002464,0.024489,1.037774,2.576884,782.06,40.70,highres
13.732697,66655613371,5.408348,-0.654338,-8.654290,-0.004825,-0.030654,-0.021551,0.020911,1.035627,2.579192,782.06,40.70,highres
13.758564,66655631614,5.430990,-0.877924,-8.637474,-0.018267,0.021328,-0.003509,0.020911,1.035627,2.579192,782.06,40.70,highres
13.777177,66655652724,5.481886,-1.076323,-8.408357,-0.007092,0.079707,-0.045811,0.020911,1.035627,2.579192,782.06,40.70,highres
13.793856,66655675705,5.180717,-0.687233,-8.168550,0.016693,0.060637,-0.074552,0.020911,1.035627,2.579192,782.06,40.70,highres
13.825801,66655693615,5.069148,-0.535635,-8.242231,0.004638,0.047911,-0.032250,0.020911,1.035627,2.579192,782.06,40.70,highres
13.832186,66655714339,5.102839,-0.597738,-8.099798,-0.038398,0.062420,0.002922,0.022499,1.031844,2.582753,782.06,40.70,highres
13.856305,66655728826,5.343449,-0.771189,-7.938670,0.000711,0.080123,-0.000559,0.022499,1.031844,2.582753,782.06,40.70,highres
13.876300,66655751847,5.302969,-0.546666,-7.617534,0.005944,0.005933,-0.015487,0.021664,1.048391,2.583530,782.06,40.70,highres
13.892286,66655768846,5.299226,-0.399941,-7.799860,0.011218,-0.061062,0.013675,0.021664,1.048391,2.583530,782.06,40.70,highres
13.923870,66655791170,5.705447,-0.968641,-8.464361,0.093706,-0.041294,0.025072,0.021664,1.048391,2.583530,782.06,40.70,highres
13.932236,66655811582,5.914116,-1.140579,-8.642864,0.012814,-0.003222,-0.072265,0.021664,1.048391,2.583530,782.06,40.70,highres
13.958995,66655835500,5.705227,-0.813966,-8.522440,-0.028225,0.000421,-0.080026,0.021664,1.048391,2.583530,782.06,40.70,highres
13.977262,66655850922,5.456343,-0.867886,-8.406037,-0.014058,0.013153,-0.078844,0.025945,1.030313,2.580328,782.06,40.70,highres
13.993148,66655872133,5.265112,-1.079863,-8.338532,-0.015131,0.014180,-0.091693,0.025945,1.030313,2.580328,782.06,40.70,highres
14.026268,66655897432,4.974420,-0.742901,-8.181719,-0.041303,-0.014257,-0.122051,0.021061,1.030788,2.584165,782.06,40.70,highres
14.032825,66655916624,4.901073,-0.522274,-8.348494,-0.009149,0.014567,-0.096622,0.021061,1.030788,2.584165,782.06,40.70,highres
14.059754,66655933783,4.907791,-0.294601,-8.314592,-0.010555,0.099764,-0.042620,0.021061,1.030788,2.584165,782.06,40.70,highres
14.077165,66655953794,5.131859,-0.401615,-7.852559,0.008752,0.126397,0.012916,0.021061,1.030788,2.584165,782.06,40.70,highres
14.105092,66655974060,5.269118,-0.448943,-7.505827,0.025079,0.045538,0.027943,0.021061,1.030788,2.584165,782.06,40.70,highres
14.122485,66655995151,5.426445,-0.592466,-7.816229,0.030174,-0.050897,0.015768,0.018433,1.029496,2.572702,782.06,40.70,highres
14.131978,66656010952,5.389153,-0.300541,-7.951087,0.028865,-0.064854,0.015255,0.018433,1.029496,2.572702,782.06,40.70,highres
14.159480,66656032295,5.398580,-0.450217,-8.203263,0.052675,-0.100052,0.057206,0.023049,1.026221,2.574867,782.06,40.70,highres
14.177246,66656047829,5.424973,-0.605897,-8.390902,0.039481,-0.086983,0.077327,0.023049,1.026221,2.574867,782.06,40.70,highres
14.191931,66656071699,5.455452,-1.041636,-8.650573,0.029360,-0.028391,0.045513,0.023049,1.026221,2.574867,782.06,40.70,highres
14.221909,66656090894,5.370823,-0.787531,-8.238007,-0.011465,0.038109,-0.002253,0.023049,1.026221,2.574867,782.05,40.70,highres
14.232508,66656108925,5.386018,-0.733261,-8.053854,0.018611,0.042487,-0.000423,0.023049,1.026221,2.574867,782.05,40.70,highres
14.255049,66656123880,5.504564,-0.823585,-8.126407,0.051786,0.024761,-0.003846,0.025682,1.027424,2.566869,782.05,40.70,highres
14.276749,66656138699,5.527022,-0.794642,-8.238821,0.056341,-0.003841,-0.012738,0.025682,1.027424,2.566869,782.05,40.70,highres
14.292633,66656161399,5.385616,-0.744894,-8.385714,0.022628,-0.027520,-0.016981,0.029373,1.021770,2.576763,782.06,40.70,highres
14.292633,66656179598,5.312686,-0.828058,-8.320045,-0.015230,-0.012662,-0.004003,0.029373,1.021770,2.576763,782.06,40.70,highres
14.333439,66656211500,5.303339,-0.936802,-8.247084,0.005710,0.047962,-0.030282,0.029373,1.021770,2.576763,782.06,40.70,highres
14.357182,66656234227,5.134321,-0.434739,-8.002577,-0.015627,0.045103,-0.032967,0.029373,1.021770,2.576763,782.06,40.70,highres
14.376932,66656251316,5.152925,-0.419561,-7.935960,-0.008721,0.033405,0.015241,0.029373,1.021770,2.576763,782.07,40.70,highres
14.393024,66656272109,5.287546,-0.875697,-7.865907,0.006170,-0.004511,0.033894,0.026372,1.027866,2.573302,782.07,40.70,highres
14.425307,66656291206,5.351896,-0.850032,-7.993781,-0.008716,-0.052099,-0.012738,0.026372,1.027866,2.573302,782.07,40.70,highres
14.431792,66656308708,5.308176,-0.520789,-8.246552,-0.030481,-0.078022,-0.005783,0.028548,1.027715,2.576338,782.07,40.70,highres
14.455804,66656337308,5.366687,-0.594171,-8.383109,0.012640,0.009608,0.050231,0.028548,1.027715,2.576338,782.07,40.70,highres
14.478759,66656351936,5.439281,-0.782997,-8.267906,0.032822,0.054497,0.041324,0.028548,1.027715,2.576338,782.07,40.70,highres
14.492770,66656367359,5.435982,-0.781597,-8.079607,0.046872,0.066714,0.024525,0.028548,1.027715,2.576338,782.07,40.70,highres
14.525897,66656387469,5.262512,-0.720849,-7.968328,0.015262,0.005534,0.023799,0.028548,1.027715,2.576338,782.07,40.70,highres
14.544529,66656409547,5.240995,-0.865813,-8.202004,-0.028875,-0.068898,0.039186,0.024037,1.030116,2.574281,782.05,40.70,highres
14.556459,66656435148,5.355487,-0.823697,-8.458236,-0.002698,-0.023942,0.006936,0.024037,1.030116,2.574281,782.05,40.70,highres
14.576013,66656452325,5.471184,-0.706395,-8.498127,-0.011157,0.010816,0.009455,0.028440,1.032923,2.574163,782.05,40.70,highres
14.603624,66656471439,5.558401,-0.789355,-8.401018,-0.021557,0.044169,0.024051,0.028440,1.032923,2.574163,782.05,40.70,highres
14.622654,66656497320,5.610013,-1.070586,-8.273074,0.015331,0.089229,-0.009546,0.028440,1.032923,2.574163,782.05,40.70,highres
14.632642,66656514791,5.451381,-1.039475,-7.981548,-0.005652,0.066239,-0.054460,0.028440,1.032923,2.574163,782.05,40.70,highres
14.655515,66656534460,5.260870,-0.701936,-7.811476,-0.050040,-0.017221,-0.065327,0.028440,1.032923,2.574163,782.05,40.70,highres
14.677717,66656552485,5.120865,-0.380788,-7.884851,-0.015436,-0.032552,-0.030453,0.030315,1.029195,2.574406,782.05,40.70,highres
14.693265,66656567230,5.113689,-0.331625,-7.915602,0.033128,-0.005674,0.017806,0.030315,1.029195,2.574406,782.06,40.70,highres
14.724235,66656587470,5.309718,-0.816653,-7.920825,0.069199,0.002216,0.057079,0.029086,1.030990,2.571981,782.06,40.70,highres
14.733231,66656607287,5.490754,-1.039166,-8.139822,0.068253,-0.027970,0.030633,0.029086,1.030990,2.571981,782.06,40.70,highres
14.760106,66656627045,5.453645,-0.713568,-8.255937,0.015923,-0.053744,-0.017190,0.029086,1.030990,2.571981,782.06,40.70,highres
14.777816,66656644650,5.386720,-0.490698,-8.211430,-0.013987,-0.062414,-0.004399,0.029086,1.030990,2.571981,782.07,40.70,highres
14.794695,66656669025,5.621601,-0.944978,-8.584300,0.017549,-0.056379,0.030633,0.029086,1.030990,2.571981,782.07,40.70,highres
14.822848,66656687365,5.577232,-1.074939,-8.664049,-0.009528,-0.003950,-0.024898,0.026613,1.031845,2.575483,782.07,40.70,highres
14.833673,66656706013,5.367458,-0.622592,-8.343321,-0.009023,0.054187,-0.066189,0.026613,1.031845,2.575483,782.07,40.70,highres
14.855532,66656729624,5.198673,-0.587878,-8.132639,0.039734,0.083748,-0.025975,0.029837,1.029757,2.578578,782.07,40.70,highres
14.875610,66656749433,5.134614,-1.009770,-7.955525,-0.041094,0.009289,-0.015792,0.029837,1.029757,2.578578,782.07,40.70,highres
14.891841,66656769376,5.039466,-0.658504,-8.072787,-0.013299,-0.030112,-0.030758,0.029837,1.029757,2.578578,782.07,40.70,highres
14.925194,66656791698,5.083950,-0.596817,-8.317266,0.002786,-0.022910,0.023589,0.029837,1.029757,2.578578,782.07,40.70,highres
14.932476,66656807215,5.406582,-0.788385,-8.304524,-0.025395,0.003410,0.055618,0.029837,1.029757,2.578578,782.06,40.70,highres
14.955324,66656831428,5.740212,-0.871976,-8.214400,0.015269,0.047727,0.020293,0.029149,1.032941,2.576031,782.06,40.70,highres
14.976203,66656846988,5.727614,-0.738867,-8.134877,0.017433,0.050624,-0.010018,0.029149,1.032941,2.576031,782.06,40.70,highres
14.996017,66656866998,5.612995,-0.863992,-8.009484,-0.021546,0.019063,-0.026788,0.029011,1.029361,2.574325,782.06,40.70,highres
15.024091,66656891913,5.429372,-0.839052,-7.946503,-0.009648,-0.010293,-0.079220,0.029011,1.029361,2.574325,782.06,40.70,highres
15.035170,66656910089,5.155359,-0.476950,-7.970339,0.000140,-0.033166,-0.076268,0.029011,1.029361,2.574325,782.06,40.70,highres
15.055612,66656934520,4.951853,-0.450042,-8.085644,-0.013778,-0.070329,0.003824,0.029011,1.029361,2.574325,782.06,40.70,highres
15.075867,66656952680,5.078395,-0.724381,-8.366102,0.028005,-0.030794,0.030693,0.029011,1.029361,2.574325,782.06,40.70,highres
15.092321,66656972045,5.226574,-0.715702,-8.362846,0.016603,0.035891,0.029891,0.023880,1.027049,2.576425,782.06,40.70,highres
15.123066,66656992209,5.389621,-0.567087,-8.104270,0.025019,0.036341,0.046655,0.023880,1.027049,2.576425,782.06,40.70,highres
15.132458,66657014710,5.511585,-0.847359,-8.137386,0.001973,-0.042329,0.043156,0.022809,1.029460,2.569850,782.06,40.70,highres
15.155077,66657034788,5.681549,-1.019411,-8.555075,-0.018696,-0.032208,-0.012292,0.022809,1.029460,2.569850,782.06,40.70,highres
15.175836,66657052233,5.477585,-0.777012,-8.549212,-0.025602,0.027911,-0.033240,0.022809,1.029460,2.569850,782.07,40.70,highres
15.193022,66657074711,5.356490,-0.683342,-8.150970,0.009808,0.091126,-0.002135,0.022809,1.029460,2.569850,782.07,40.70,highres
15.225627,66657092226,5.372246,-0.856017,-7.920762,0.021806,0.081792,-0.003167,0.022809,1.029460,2.569850,782.07,40.70,highres
15.238010,66657115310,5.304451,-0.830958,-7.854995,-0.014845,-0.005030,-0.025714,0.030381,1.030487,2.573486,782.07,40.70,highres
15.255563,66657132376,5.246889,-0.645935,-8.006483,-0.003203,-0.030434,-0.011431,0.030381,1.030487,2.573486,782.07,40.70,highres
15.277959,66657152584,5.270309,-0.646561,-8.107224,0.010524,-0.003234,0.015056,0.028820,1.034710,2.559811,782.07,40.70,highres
15.293011,66657168223,5.365440,-0.846299,-8.042769,0.018711,0.001102,0.016607,0.028820,1.034710,2.559811,782.07,40.70,highres
15.304912,66657189745,5.485965,-0.747085,-8.059619,0.032414,-0.015527,-0.018026,0.028820,1.034710,2.559811,782.07,40.70,highres
15.345483,66657209579,5.422059,-0.535575,-8.308648,0.005511,-0.051320,-0.016271,0.028820,1.034710,2.559811,782.07,40.70,highres
15.356384,66657235044,5.326757,-0.689627,-8.419931,-0.030620,-0.038269,0.023914,0.028820,1.034710,2.559811,782.07,40.70,highres
15.375131,66657257292,5.272337,-0.893564,-8.321617,0.039597,0.046331,0.007662,0.026339,1.032995,2.571429,782.07,40.70,highres
15.398077,66657272260,5.241676,-0.840916,-8.219840,0.040128,0.054563,-0.007029,0.026339,1.032995,2.571429,782.07,40.70,highres
15.424957,66657292656,5.299589,-0.714681,-8.130442,-0.017224,0.015030,-0.002333,0.025563,1.029979,2.572968,782.07,40.70,highres
15.440231,66657310345,5.374743,-0.668080,-8.202554,-0.050138,-0.010072,0.015414,0.025563,1.029979,2.572968,782.07,40.70,highres
15.454802,66657335893,5.460943,-0.749622,-8.241866,-0.023853,0.024659,0.024497,0.025563,1.029979,2.572968,782.07,40.70,highres
15.483059,66657352821,5.487879,-0.817033,-8.095937,-0.016710,0.045289,0.015922,0.025563,1.029979,2.572968,782.07,40.70,highres
15.493377,66657372495,5.451626,-0.713891,-7.874442,-0.001134,0.030496,0.008031,0.025563,1.029979,2.572968,782.06,40.70,highres
15.524873,66657393445,5.416224,-0.774536,-7.918039,0.036373,-0.026370,0.005893,0.031531,1.032016,2.571267,782.06,40.70,highres
15.531245,66657415771,5.374823,-0.911842,-8.193693,0.005480,-0.052964,-0.010267,0.031531,1.032016,2.571267,782.06,40.70,highres
15.555886,66657430775,5.335526,-0.685158,-8.339404,-0.019334,-0.034585,-0.027037,0.024468,1.024775,2.568978,782.06,40.70,highres
15.577129,66657445883,5.281172,-0.499943,-8.196404,-0.020184,-0.010851,-0.004472,0.024468,1.024775,2.568978,782.06,40.70,highres
15.592519,66657468847,5.339468,-0.639522,-8.177008,0.015848,0.008597,0.029497,0.024468,1.024775,2.568978,782.06,40.70,highres
15.623182,66657491575,5.517903,-1.037679,-8.243641,0.027629,0.009289,0.015362,0.024468,1.024775,2.568978,782.06,40.70,highres
15.637248,66657512743,5.464239,-0.906234,-8.216254,0.008128,0.010282,-0.032682,0.024468,1.024775,2.568978,782.06,40.70,highres
15.655423,66657532679,5.378933,-0.699553,-8.181999,-0.008661,0.001079,-0.025297,0.027260,1.032186,2.576817,782.07,40.70,highres
15.675780,66657553424,5.282920,-0.615822,-8.142330,-0.027474,-0.006737,-0.009065,0.027260,1.032186,2.576817,782.07,40.70,highres
15.692228,66657572560,5.225579,-0.673610,-8.049417,0.007776,0.006249,0.010199,0.025114,1.027869,2.580543,782.07,40.70,highres
15.722505,66657592819,5.307925,-0.807455,-8.096031,0.018821,0.005114,0.008973,0.025114,1.027869,2.580543,782.07,40.70,highres
15.730979,66657613783,5.383471,-0.809902,-8.112855,-0.007525,-0.033137,0.000861,0.025114,1.027869,2.580543,782.06,40.70,highres
15.763349,66657633204,5.444673,-0.766260,-8.310655,0.002689,-0.038675,-0.002731,0.025114,1.027869,2.580543,782.06,40.70,highres
15.777165,66657653223,5.372245,-0.633366,-8.411551,0.006859,0.008372,0.002839,0.025114,1.027869,2.580543,782.06,40.70,highres
15.792650,66657670799,5.331072,-0.619610,-8.267505,0.000593,0.036757,0.020695,0.027047,1.028861,2.573380,782.06,40.70,highres
15.822224,66657693488,5.363624,-0.948486,-8.059949,0.011944,0.029282,0.013041,0.027047,1.028861,2.573380,782.06,40.70,highres
15.832528,66657712694,5.396546,-0.784135,-8.087478,-0.020105,-0.001639,-0.018828,0.020036,1.026780,2.580606,782.06,40.70,highres
15.858580,66657736559,5.300408,-0.559149,-8.080773,-0.020334,-0.013016,0.012496,0.020036,1.026780,2.580606,782.06,40.70,highres
15.877852,66657747998,5.300422,-0.627380,-8.064407,0.001666,-0.008126,0.035826,0.020036,1.026780,2.580606,782.06,40.70,highres
15.897596,66657774523,5.484008,-1.018950,-8.171717,0.040501,0.008367,0.010700,0.020036,1.026780,2.580606,782.06,40.70,highres
15.926424,66657792418,5.438084,-0.870382,-8.173339,-0.018493,-0.030117,-0.032896,0.020036,1.026780,2.580606,782.06,40.70,highres
15.932360,66657813036,5.380451,-0.630103,-8.310175,-0.038040,-0.054246,-0.015792,0.025270,1.027835,2.570626,782.06,40.70,highres
15.960477,66657830443,5.388446,-0.765302,-8.408041,-0.008610,0.006273,-0.002771,0.025270,1.027835,2.570626,782.06,40.70,highres
15.976975,66657848953,5.336235,-0.800221,-8.096368,-0.014637,0.051483,-0.004160,0.027682,1.026509,2.572858,782.05,40.70,highres
15.999058,66657869031,5.332103,-0.781075,-7.944736,0.009913,0.037383,-0.011821,0.027682,1.026509,2.572858,782.05,40.70,highres
16.023410,66657887810,5.296902,-0.712668,-8.028339,0.025795,-0.004018,-0.010518,0.027682,1.026509,2.572858,782.05,40.70,highres
16.032392,66657902967,5.302829,-0.605834,-8.131942,0.010523,-0.029812,0.000396,0.027682,1.026509,2.572858,782.05,40.70,highres
16.056394,66657923930,5.428506,-0.794967,-8.293043,0.032828,-0.015696,0.025322,0.027682,1.026509,2.572858,782.06,40.70,highres
16.076404,66657943255,5.479224,-0.954305,-8.228913,0.000342,0.008151,0.009132,0.026108,1.025937,2.573116,782.06,40.70,highres
16.093500,66657966420,5.449616,-0.703810,-8.062080,-0.045047,-0.012960,-0.018794,0.026108,1.025937,2.573116,782.06,40.70,highres
16.125175,66657992336,5.362914,-0.700392,-8.218067,0.032209,-0.026147,-0.008461,0.033709,1.030854,2.571952,782.06,40.70,highres
16.133018,66658008613,5.441675,-0.860805,-8.461827,0.013659,-0.032606,-0.003992,0.033709,1.030854,2.571952,782.08,40.85,highres
16.157259,66658028114,5.350698,-0.741100,-8.417537,-0.010263,0.012978,-0.028571,0.033709,1.030854,2.571952,782.08,40.85,highres
16.176917,66658048299,5.265037,-0.549641,-8.149854,0.000755,0.060734,-0.011563,0.033709,1.030854,2.571952,782.08,40.85,highres
16.192932,66658070604,5.249121,-0.782293,-7.953979,0.009018,0.047534,0.017753,0.033709,1.030854,2.571952,782.08,40.85,highres
16.222561,66658094885,5.306935,-0.944550,-8.012025,-0.009867,-0.011193,-0.029634,0.030850,1.030682,2.572773,782.08,41.00,highres
16.231322,66658111364,5.241437,-0.502887,-8.104653,-0.021369,-0.019682,-0.025314,0.030850,1.030682,2.572773,782.08,41.00,highres
16.256601,66658131986,5.303761,-0.440148,-8.119259,0.002532,0.002312,0.043781,0.031835,1.030640,2.581048,782.08,41.00,highres
16.276129,66658151106,5.495017,-1.023778,-8.028779,0.018159,0.001648,0.056596,0.031835,1.030640,2.581048,782.08,41.00,highres
16.293076,66658174312,5.516211,-0.933749,-8.128521,0.026359,-0.023321,-0.020602,0.031835,1.030640,2.581048,782.08,41.00,highres
16.305672,66658187292,5.401410,-0.751409,-8.233900,0.003222,-0.045247,-0.022042,0.031835,1.030640,2.581048,782.08,41.00,highres
16.346416,66658213628,5.336178,-0.771787,-8.397747,-0.024095,-0.028367,0.009774,0.035390,1.030022,2.567900,782.07,41.00,highres
16.360889,66658228261,5.366984,-0.959213,-8.310446,0.003193,0.021806,0.000091,0.035390,1.030022,2.567900,782.07,41.00,highres
16.376573,66658248063,5.262118,-0.642942,-8.196082,0.009913,0.043492,-0.013043,0.035390,1.030022,2.567900,782.07,41.00,highres
16.398724,66658268256,5.330349,-0.714765,-8.090743,-0.003527,0.043492,0.019333,0.021192,1.036962,2.575685,782.07,41.00,highres
16.426359,66658294005,5.417829,-0.916594,-7.980278,-0.004191,0.016544,-0.002818,0.021192,1.036962,2.575685,782.07,41.00,highres
16.431856,66658308492,5.282825,-0.534872,-7.950142,-0.023074,-0.015456,-0.026177,0.021192,1.036962,2.575685,782.07,41.00,highres
16.459192,66658327133,5.464993,-0.445721,-8.079275,-0.025294,-0.050693,0.019107,0.021192,1.036962,2.575685,782.07,41.00,highres
16.477410,66658346554,5.677516,-1.072321,-8.488372,0.025007,-0.039732,0.042804,0.026251,1.034393,2.574298,782.07,41.00,highres
16.494441,66658367287,5.707419,-1.148097,-8.461828,-0.001601,0.017826,-0.019154,0.026251,1.034393,2.574298,782.06,41.00,highres
16.525272,66658389496,5.448011,-0.780087,-8.074172,-0.001083,0.053331,-0.065494,0.026251,1.034393,2.574298,782.06,41.00,highres
16.531902,66658398371,5.390202,-0.830879,-8.047649,-0.001389,0.034635,-0.057331,0.021674,1.035124,2.571383,782.06,41.00,highres
16.555307,66658428525,5.131844,-0.696435,-8.090239,-0.027105,-0.017044,-0.051710,0.021674,1.035124,2.571383,782.06,41.00,highres
16.578653,66658449645,5.032422,-0.579423,-8.048841,-0.021242,0.000121,-0.035645,0.021674,1.035124,2.571383,782.06,41.00,highres
16.594709,66658466664,5.106576,-0.608667,-7.968113,0.014120,0.019138,-0.010020,0.021674,1.035124,2.571383,782.06,41.00,highres
16.624560,66658486737,5.318569,-0.451079,-8.035007,0.065715,0.021909,0.005180,0.031842,1.021056,2.574038,782.06,41.00,highres
16.631324,66658512146,5.347826,-0.579816,-8.076361,0.021399,-0.021634,0.028589,0.031842,1.021056,2.574038,782.06,41.00,highres
16.657391,66658536749,5.517089,-0.797361,-8.384020,-0.009328,-0.041305,0.016833,0.031842,1.021056,2.574038,782.06,41.00,highres
16.676047,66658552187,5.411749,-0.742297,-8.395990,0.006247,0.006229,0.003756,0.025423,1.030558,2.570543,782.06,41.00,highres
16.695967,66658574019,5.355487,-0.736312,-8.223616,-0.015744,0.011727,0.011086,0.025423,1.030558,2.570543,782.06,41.00,highres
16.724941,66658594244,5.344714,-0.742297,-8.136230,-0.009330,0.005924,0.024525,0.025423,1.030558,2.570543,782.06,41.00,highres
16.740283,66658613760,5.476468,-0.866130,-8.276082,0.007993,0.014068,0.025660,0.025423,1.030558,2.570543,782.06,41.00,highres
16.755833,66658631399,5.491034,-0.917296,-8.189436,-0.006093,0.030353,0.005964,0.028493,1.023042,2.569925,782.06,41.00,highres
16.779636,66658653971,5.515154,-0.886319,-8.064577,-0.002849,0.028013,-0.023214,0.028493,1.023042,2.569925,782.06,41.00,highres
16.792303,66658671561,5.429034,-0.782868,-8.009344,-0.009351,-0.007404,-0.035037,0.028493,1.023042,2.569925,782.06,41.00,highres
16.826991,66658694169,5.276066,-0.679062,-8.081323,-0.010619,-0.035646,-0.021501,0.022627,1.023939,2.576849,782.07,41.00,highres
16.832650,66658714047,5.276636,-0.667359,-8.234697,0.002867,-0.006724,-0.010736,0.022627,1.023939,2.576849,782.07,41.00,highres
16.862268,66658732094,5.267588,-0.644066,-8.122639,0.027768,0.023037,0.001938,0.022627,1.023939,2.576849,782.07,41.00,highres
16.877501,66658754073,5.329711,-0.643579,-8.032242,0.021824,0.006001,0.004882,0.022627,1.023939,2.576849,782.07,41.00,highres
16.904167,66658774683,5.383019,-0.777012,-8.126653,0.000517,-0.044877,0.009351,0.027832,1.028595,2.577163,782.06,41.00,highres
16.925017,66658788733,5.369697,-0.721870,-8.274390,-0.013911,-0.057000,-0.000825,0.027832,1.028595,2.577163,782.06,41.00,highres
16.940593,66658815243,5.425242,-0.745560,-8.585450,-0.017439,-0.001299,-0.013861,0.027832,1.028595,2.577163,782.06,41.00,highres
16.956642,66658832727,5.383583,-0.655930,-8.437099,-0.023968,0.050263,-0.006605,0.029696,1.024086,2.571451,782.06,41.00,highres
16.977594,66658852442,5.374613,-0.661786,-8.105167,0.007984,0.080750,0.014440,0.029696,1.024086,2.571451,782.06,41.00,highres
16.993306,66658867516,5.353820,-0.837887,-7.904817,0.003498,0.053872,0.015058,0.029696,1.024086,2.571451,782.06,41.00,highres
17.023358,66658887464,5.327955,-0.873973,-7.930338,-0.032237,-0.014804,-0.008766,0.029696,1.024086,2.571451,782.06,41.00,highres
17.031883,66658908797,5.266906,-0.541193,-8.093138,-0.022769,-0.038063,-0.011209,0.031112,1.026140,2.575601,782.06,41.00,highres
17.056484,66658928158,5.314787,-0.585484,-8.144609,0.005262,-0.010219,0.024083,0.031112,1.026140,2.575601,782.07,41.00,highres
17.076608,66658949576,5.552945,-0.978526,-8.133621,0.023657,0.010501,0.033384,0.031112,1.026140,2.575601,782.07,41.00,highres
17.093256,66658969019,5.497930,-0.805206,-8.102640,0.030682,-0.001717,-0.015485,0.027287,1.024530,2.576361,782.07,41.00,highres
17.124914,66658989145,5.390202,-0.566331,-8.191294,0.010072,-0.033368,-0.011924,0.027287,1.024530,2.576361,782.07,41.00,highres
17.143940,66659007175,5.303989,-0.744543,-8.261859,-0.008498,-0.037842,0.005463,0.027287,1.024530,2.576361,782.07,41.00,highres
17.155784,66659034964,5.256132,-0.725538,-8.240374,0.010829,0.009890,-0.020372,0.027287,1.024530,2.576361,782.07,41.00,highres
17.176820,66659046230,5.215373,-0.656881,-8.173596,0.007770,0.015734,-0.015590,0.027139,1.025939,2.573465,782.07,41.00,highres
17.192337,66659067098,5.339233,-0.733731,-8.174840,-0.009635,-0.001717,0.014752,0.027139,1.025939,2.573465,782.07,41.00,highres
17.223783,66659086962,5.444598,-0.894338,-8.301286,0.025044,0.007989,0.008783,0.027139,1.025939,2.573465,782.07,41.00,highres
17.233238,66659108611,5.425309,-0.755616,-8.237487,-0.009941,0.019358,-0.014569,0.022090,1.025518,2.575728,782.07,41.00,highres
17.259183,66659127924,5.353415,-0.630121,-8.145278,-0.052091,-0.004513,-0.004445,0.022090,1.025518,2.575728,782.07,41.00,highres
17.276524,66659149697,5.354150,-0.725367,-8.066336,-0.009125,0.016952,0.014920,0.022090,1.025518,2.575728,782.07,41.00,highres
17.292580,66659165079,5.346430,-0.830191,-7.943662,0.013452,0.023901,0.010061,0.022090,1.025518,2.575728,782.06,41.00,highres
17.313276,66659194349,5.364313,-0.789368,-8.029713,0.041232,-0.021287,-0.009384,0.029243,1.032603,2.575116,782.06,41.00,highres
17.313276,66659209361,5.371458,-0.686521,-8.263844,0.035116,-0.025846,-0.004973,0.029243,1.032603,2.575116,782.06,41.00,highres
17.357084,66659232262,5.411287,-0.699694,-8.329001,-0.022027,-0.014151,0.012728,0.029243,1.032603,2.575116,782.06,41.00,highres
17.375449,66659255237,5.392884,-0.703130,-8.153899,-0.003581,0.009495,0.011824,0.035793,1.027923,2.573384,782.06,41.00,highres
17.392841,66659267705,5.340378,-0.730583,-8.083316,-0.011404,-0.006950,0.014502,0.035793,1.027923,2.573384,782.06,41.00,highres
17.422164,66659287181,5.452814,-0.888604,-8.287384,0.008985,-0.019443,0.000416,0.035793,1.027923,2.573384,782.06,41.00,highres
17.435219,66659304732,5.410508,-0.800639,-8.381118,0.023046,0.007752,-0.020372,0.035793,1.027923,2.573384,782.06,41.00,highres
17.464351,66659334664,5.375837,-0.646533,-8.136230,-0.004546,0.049369,-0.011063,0.026897,1.027698,2.573575,782.06,41.00,highres
17.475978,66659351777,5.333940,-0.721947,-7.966249,0.012147,0.046106,0.000360,0.026897,1.027698,2.573575,782.06,41.00,highres
17.502729,66659372652,5.285372,-0.774735,-7.929258,-0.031241,-0.015496,0.006895,0.026897,1.027698,2.573575,782.06,41.00,highres
17.522753,66659394824,5.375337,-0.825119,-8.061656,-0.003626,-0.029625,-0.008347,0.029029,1.033925,2.573219,782.06,41.00,highres
17.543269,66659412038,5.316957,-0.697762,-8.144519,0.014235,-0.024930,-0.019353,0.029029,1.033925,2.573219,782.07,41.00,highres
17.555278,66659436260,5.361020,-0.573205,-8.249461,0.003105,-0.026021,0.008608,0.029029,1.033925,2.573219,782.07,41.00,highres
17.579810,66659449885,5.397253,-0.659719,-8.291838,0.017591,-0.002829,0.021576,0.029029,1.033925,2.573219,782.07,41.00,highres
17.592043,66659475283,5.417224,-0.857214,-8.257811,0.000805,0.015601,0.006002,0.026266,1.025328,2.575900,782.07,41.00,highres
17.621994,66659494494,5.327466,-0.816415,-8.113633,-0.011062,-0.011510,0.000765,0.026266,1.025328,2.575900,782.07,41.00,highres
17.645919,66659512955,5.313334,-0.783449,-8.245187,0.011564,-0.010266,-0.010418,0.026266,1.025328,2.575900,782.07,41.00,highres
17.657092,66659528315,5.309423,-0.675785,-8.268259,0.003097,0.007400,-0.006109,0.028170,1.029733,2.572575,782.07,41.00,highres
17.676734,66659548559,5.433610,-0.789170,-8.146648,-0.006672,0.024154,0.010171,0.028170,1.029733,2.572575,782.07,41.00,highres
17.701440,66659562465,5.454349,-0.771730,-8.015328,-0.007460,0.019570,0.001725,0.028170,1.029733,2.572575,782.07,41.00,highres
17.722463,66659578001,5.318015,-0.655521,-8.119783,-0.008719,-0.011491,-0.007239,0.028170,1.029733,2.572575,782.07,41.00,highres
17.736505,66659614695,5.334777,-0.847753,-8.269116,0.036778,0.001605,0.011364,0.026507,1.027170,2.571320,782.07,41.00,highres
17.755346,66659632693,5.386438,-0.875499,-8.199376,0.004645,0.022324,-0.016300,0.026507,1.027170,2.571320,782.07,41.00,highres
17.778254,66659647252,5.423274,-0.618154,-8.127141,-0.029470,-0.013057,-0.006054,0.026507,1.027170,2.571320,782.07,41.00,highres
17.792535,66659674399,5.460790,-0.811896,-8.264798,0.002783,-0.005613,0.022201,0.031580,1.029221,2.578328,782.07,41.00,highres
17.824618,66659692166,5.500346,-1.034031,-8.291344,0.019066,0.023243,-0.009934,0.031580,1.029221,2.578328,782.07,41.00,highres
17.832339,66659712556,5.375578,-0.832497,-8.129331,-0.021811,0.010205,-0.051446,0.031580,1.029221,2.578328,782.07,41.00,highres
17.857133,66659738073,5.212369,-0.482183,-8.061404,-0.008673,-0.010698,-0.022246,0.031580,1.029221,2.578328,782.07,41.00,highres
17.876135,66659754832,5.209447,-0.621395,-8.048846,0.016019,-0.005448,0.005113,0.031639,1.026150,2.577279,782.07,41.00,highres
17.903721,66659773304,5.236104,-0.774208,-8.085167,0.007288,-0.018625,-0.007216,0.031639,1.026150,2.577279,782.07,41.00,highres
17.925561,66659795779,5.233402,-0.575840,-8.186186,0.037407,-0.011894,-0.000303,0.031639,1.026150,2.577279,782.07,41.00,highres
17.944406,66659812842,5.266194,-0.552736,-8.252343,0.036481,0.005127,0.036085,0.021715,1.029983,2.574370,782.07,41.00,highres
17.956767,66659832816,5.405685,-0.891523,-8.111233,0.040604,0.006662,0.041900,0.021715,1.029983,2.574370,782.07,41.00,highres
17.980961,66659854018,5.495409,-0.876744,-8.259820,-0.028260,-0.039917,-0.000932,0.021715,1.029983,2.574370,782.07,41.00,highres
17.992461,66659875678,5.539832,-0.749914,-8.373240,-0.076727,-0.045056,-0.021767,0.021715,1.029983,2.574370,782.07,41.00,highres
18.023444,66659893150,5.493148,-0.689627,-8.379232,-0.019411,0.021491,-0.015791,0.030206,1.028402,2.574962,782.07,41.00,highres
18.035965,66659912403,5.364979,-0.790221,-8.092258,0.036540,0.054301,-0.008165,0.030206,1.028402,2.574962,782.07,41.00,highres
18.055937,66659932908,5.227082,-0.712433,-8.025782,0.025611,0.017400,0.000832,0.030206,1.028402,2.574962,782.07,41.00,highres
18.077599,66659957209,5.151570,-0.685318,-7.982470,-0.004343,-0.022478,0.016464,0.028345,1.038372,2.571915,782.07,41.00,highres
18.091825,66659973398,5.334171,-0.823270,-8.105439,0.022878,-0.006829,0.010725,0.028345,1.038372,2.571915,782.07,41.00,highres
18.122448,66659994041,5.404506,-0.713841,-8.075335,0.002423,-0.016470,-0.000441,0.028345,1.038372,2.571915,782.07,41.00,highres
18.132671,66660012246,5.454529,-0.758810,-8.254805,0.010521,-0.035319,0.015974,0.028345,1.038372,2.571915,782.07,41.00,highres
18.156452,66660033158,5.457667,-0.942917,-8.416427,0.018989,-0.013922,0.001628,0.021202,1.032843,2.576022,782.07,41.00,highres
18.177302,66660055524,5.432443,-0.809620,-8.472454,-0.008806,0.028819,-0.037520,0.021202,1.032843,2.576022,782.07,40.70,highres
18.194111,66660073365,5.306832,-0.518384,-8.236014,-0.009394,0.057352,-0.017734,0.021202,1.032843,2.576022,782.07,40.70,highres
18.227014,66660094284,5.322379,-0.765130,-7.935902,0.018467,0.066795,0.016382,0.028062,1.032884,2.575584,782.07,40.70,highres
18.232270,66660112876,5.377666,-1.063801,-7.870699,-0.043872,-0.001138,-0.034670,0.028062,1.032884,2.575584,782.07,40.70,highres
18.255456,66660132724,5.210910,-0.607565,-7.918631,-0.060036,-0.091077,-0.046945,0.028062,1.032884,2.575584,782.07,40.70,highres
18.276406,66660151523,5.229797,-0.417897,-8.340925,0.005023,-0.063725,-0.011819,0.028062,1.032884,2.575584,782.07,40.70,highres
18.291737,66660172878,5.429350,-0.605555,-8.499365,0.030846,0.034931,0.035865,0.029346,1.028741,2.572115,782.07,40.70,highres
18.309970,66660192763,5.509906,-0.862002,-8.152989,0.035262,0.078607,0.035522,0.029346,1.028741,2.572115,782.07,40.70,highres
18.309970,66660212981,5.642509,-1.305064,-7.981270,0.042040,0.031137,-0.014293,0.029346,1.028741,2.572115,782.07,40.70,highres
18.356008,66660235477,5.496049,-0.958535,-8.155215,-0.045881,-0.039901,-0.079085,0.031363,1.030451,2.581284,782.07,40.70,highres
18.376259,66660256770,5.391741,-0.571743,-8.118388,-0.027991,-0.012717,-0.073401,0.031363,1.030451,2.581284,782.07,40.70,highres
18.397627,66660270594,5.492751,-0.583340,-8.135544,0.059594,0.043777,-0.040152,0.031363,1.030451,2.581284,782.07,40.70,highres
18.423226,66660293111,5.609403,-1.149436,-8.149343,-0.017928,0.018565,-0.102249,0.031363,1.030451,2.581284,782.06,40.70,highres
18.437650,66660311909,5.395333,-0.666717,-7.989501,-0.081242,-0.061362,-0.132927,0.029662,1.028418,2.570984,782.06,40.70,highres
18.455120,66660333113,5.122062,-0.185669,-8.224812,0.031290,-0.082051,-0.062521,0.029662,1.028418,2.570984,782.06,40.70,highres
18.477426,66660352882,5.654921,-0.356708,-8.809733,0.137511,-0.048898,0.033148,0.029662,1.028418,2.570984,782.06,40.70,highres
18.493031,66660373628,7.240952,-1.789680,-10.267797,0.153596,-0.000722,-0.003380,0.024464,1.018656,2.573451,782.06,40.70,highres
18.525642,66660393657,7.458954,-2.359596,-11.075126,-0.003499,0.066752,-0.177693,0.024464,1.018656,2.573451,782.06,40.70,highres
18.532256,66660410511,6.839828,-2.263747,-11.019922,-0.284829,0.296688,-0.352683,0.024464,1.018656,2.573451,782.06,40.70,highres
18.559834,66660431514,5.749717,-1.691400,-9.211597,-0.393483,0.597748,-0.496343,0.024464,1.018656,2.573451,782.06,40.70,highres
18.577477,66660453787,5.051841,-0.859229,-7.913739,-0.201296,0.794071,-0.607648,0.028770,1.016563,2.564136,782.06,40.70,highres
18.592325,66660475286,4.414149,0.493184,-6.448541,-0.062641,0.746017,-0.492009,0.028770,1.016563,2.564136,782.06,40.70,highres
18.622269,66660490446,4.735416,0.378141,-6.590840,0.041066,0.591122,-0.323972,0.028770,1.016563,2.564136,782.06,40.70,highres
18.633564,66660515203,5.208740,-0.629577,-7.338685,-0.168176,0.406043,-0.328832,0.050614,0.994034,2.540437,782.06,40.70,highres
18.655846,66660530785,5.183053,-0.021694,-7.865147,-0.188501,0.523435,-0.358136,0.050614,0.994034,2.540437,782.06,40.70,highres
18.676058,66660553624,5.252866,0.771204,-7.194039,-0.045598,0.728005,-0.265684,0.050614,0.994034,2.540437,782.06,40.70,highres
18.692549,66660576276,5.768074,0.516020,-6.560866,0.004021,0.675132,-0.128718,0.050614,0.994034,2.540437,782.06,40.70,highres
18.726606,66660593593,6.090863,0.235832,-6.461393,-0.009171,0.502558,-0.079294,0.056620,0.989141,2.527135,782.06,40.70,highres
