t_wall_s,t_boot_us,ax,ay,az,gx,gy,gz,mx,my,mz,abs_pressure,temperature,source
9.255836,9790879958,0.641459,0.009103,-9.744929,-0.000561,0.002237,-0.000226,0.330209,1.199593,2.624527,778.93,15.00,highres
9.257495,9790889327,0.643494,-0.005819,-9.745743,0.000649,0.000548,0.000211,0.330209,1.199593,2.624527,778.93,15.00,highres
9.272786,9790894993,0.637564,-0.006971,-9.749450,0.000383,0.000892,-0.000258,0.330209,1.199593,2.624527,778.93,15.00,highres
9.272786,9790908098,0.639901,0.003034,-9.749011,0.000397,0.000318,0.000143,0.317437,1.201962,2.632735,778.93,15.00,highres
9.272786,9790919463,0.648100,0.000706,-9.760201,-0.000203,0.000306,0.000131,0.317437,1.201962,2.632735,778.93,15.00,highres
9.272786,9790929994,0.655727,-0.000695,-9.755619,-0.000543,0.000883,0.000138,0.317437,1.201962,2.632735,778.93,15.00,highres
9.314508,9790934546,0.647203,-0.006745,-9.748627,-0.000077,0.001237,-0.000187,0.317437,1.201962,2.632735,778.93,15.00,highres
9.320995,9790957293,0.640612,-0.000238,-9.753893,0.000288,0.000299,-0.000073,0.320266,1.203102,2.630893,778.93,15.00,highres
9.333736,9790963334,0.638610,-0.004869,-9.757991,-0.001203,0.000892,0.000230,0.320266,1.203102,2.630893,778.93,15.00,highres
9.345149,9790972663,0.639310,-0.002671,-9.750274,-0.001263,-0.000640,0.000329,0.320266,1.203102,2.630893,778.93,15.00,highres
9.357260,9790982138,0.644953,0.001634,-9.755990,-0.000716,0.001321,0.001146,0.320266,1.203102,2.630893,778.93,15.00,highres
9.366143,9790989632,0.644629,0.004789,-9.759033,0.000300,0.001214,-0.000595,0.320266,1.203102,2.630893,778.93,15.00,highres
9.373723,9791004744,0.629503,-0.004242,-9.751744,0.000117,0.000349,0.000396,0.320266,1.203102,2.630893,778.93,15.00,highres
9.387183,9791014354,0.646150,0.007475,-9.754027,-0.000410,0.000453,0.000278,0.320266,1.203102,2.630893,778.93,15.00,highres
9.393898,9791024466,0.644371,-0.018347,-9.752445,0.000506,-0.000253,0.000711,0.320266,1.203102,2.630893,778.93,15.00,highres
9.397216,9791036877,0.642106,-0.002374,-9.736131,-0.000045,0.000673,0.000230,0.320266,1.203102,2.630893,778.93,15.00,highres
9.413758,9791042691,0.657269,-0.016247,-9.748870,0.001117,0.000560,-0.000074,0.320266,1.203102,2.630893,778.91,15.00,highres
9.421213,9791053448,0.651197,0.010530,-9.758902,-0.001823,0.002122,0.001031,0.321002,1.201275,2.632961,778.91,15.00,highres
9.434020,9791064668,0.649741,-0.001957,-9.752399,0.000283,-0.000042,0.000371,0.321002,1.201275,2.632961,778.91,15.00,highres
9.444909,9791074609,0.651490,-0.001125,-9.761424,-0.000410,0.000217,0.000371,0.321002,1.201275,2.632961,778.91,15.00,highres
9.454040,9791084742,0.644426,0.008077,-9.753139,0.000306,0.000813,0.000230,0.321002,1.201275,2.632961,778.91,15.00,highres
9.458177,9791097315,0.631119,0.001968,-9.746610,-0.000255,0.000715,0.000157,0.328951,1.203927,2.630018,778.91,15.00,highres
9.474114,9791101816,0.640043,-0.005507,-9.747032,0.000070,0.001406,-0.000076,0.328951,1.203927,2.630018,778.91,15.00,highres
9.478084,9791115247,0.649439,0.002318,-9.752531,-0.000151,0.000950,0.000220,0.328951,1.203927,2.630018,778.91,15.00,highres
9.494446,9791128206,0.645741,0.001203,-9.756597,-0.000811,0.000596,-0.000287,0.328951,1.203927,2.630018,778.92,15.00,highres
9.499166,9791137959,0.644446,-0.004068,-9.753431,-0.000569,0.000831,0.001292,0.328951,1.203927,2.630018,778.92,15.00,highres
9.514652,9791146389,0.631247,-0.006614,-9.763067,0.000509,-0.000045,-0.000358,0.328951,1.203927,2.630018,778.92,15.00,highres
9.520327,9791154051,0.632591,-0.001976,-9.753939,-0.000583,0.001287,0.000155,0.328951,1.203927,2.630018,778.92,15.00,highres
9.534362,9791165664,0.643652,-0.000773,-9.753728,-0.000102,0.003443,-0.000085,0.328951,1.203927,2.630018,778.92,15.00,highres
9.546298,9791175024,0.637078,0.002152,-9.754317,-0.001269,0.001479,-0.000750,0.328951,1.203927,2.630018,778.92,15.00,highres
9.556606,9791185336,0.630551,0.003583,-9.747877,0.000653,0.001593,0.000509,0.320689,1.208009,2.632032,778.92,15.00,highres
9.558146,9791196959,0.644182,0.007284,-9.756629,-0.000223,0.000879,-0.000270,0.320689,1.208009,2.632032,778.92,15.00,highres
9.575196,9791205736,0.642032,0.002818,-9.747361,0.000309,0.000598,-0.000696,0.320689,1.208009,2.632032,778.92,15.00,highres
9.578737,9791209932,0.643228,-0.001970,-9.757252,-0.000202,0.000893,-0.000085,0.320689,1.208009,2.632032,778.92,15.00,highres
9.594907,9791219999,0.643947,0.006110,-9.750736,-0.000102,0.001610,0.000220,0.320689,1.208009,2.632032,778.92,15.00,highres
9.598896,9791230129,0.632145,-0.001897,-9.755388,0.000121,0.000834,0.000026,0.329325,1.200867,2.620586,778.92,15.00,highres
9.614329,9791237544,0.635288,-0.003261,-9.758517,0.000420,0.000586,0.000220,0.329325,1.200867,2.620586,778.92,15.00,highres
9.621464,9791248902,0.639644,-0.000628,-9.745982,0.000111,0.000481,-0.000218,0.329325,1.200867,2.620586,778.92,15.00,highres
9.634436,9791258772,0.634917,0.001976,-9.756988,-0.000102,0.000523,-0.001307,0.329325,1.200867,2.620586,778.92,15.00,highres
9.644653,9791270281,0.645708,-0.001818,-9.759376,0.001028,-0.000100,-0.000329,0.329325,1.200867,2.620586,778.92,15.00,highres
9.655279,9791278006,0.648996,-0.002611,-9.755178,0.000290,0.001133,-0.000563,0.329325,1.200867,2.620586,778.92,15.00,highres
9.658921,9791289933,0.639163,-0.004589,-9.763005,0.000007,0.000260,0.000220,0.329325,1.200867,2.620586,778.92,15.00,highres
9.675469,9791301122,0.641633,0.003263,-9.754647,-0.000102,0.001015,0.000380,0.329325,1.200867,2.620586,778.92,15.00,highres
9.689153,9791305997,0.640430,0.001621,-9.746502,0.000204,0.000389,0.000600,0.329325,1.200867,2.620586,778.92,15.00,highres
9.694139,9791310606,0.647243,0.002818,-9.756122,0.000509,0.001000,0.000220,0.329325,1.200867,2.620586,778.92,15.00,highres
9.705661,9791328977,0.637150,0.003988,-9.761237,-0.000407,0.001000,0.000220,0.327434,1.205904,2.632525,778.92,15.00,highres
9.715231,9791340146,0.637231,0.001095,-9.752005,-0.000021,0.001081,-0.000166,0.327434,1.205904,2.632525,778.92,15.00,highres
9.720739,9791352270,0.643652,0.000127,-9.748932,-0.000230,0.000340,0.000073,0.327434,1.205904,2.632525,778.92,15.00,highres
9.734790,9791357648,0.643438,-0.007464,-9.759993,-0.000371,0.001806,0.000293,0.327434,1.205904,2.632525,778.93,15.00,highres
9.745020,9791369378,0.637334,-0.001127,-9.756477,0.000695,-0.000050,-0.000391,0.323684,1.203980,2.627129,778.93,15.00,highres
9.755385,9791380226,0.641433,-0.001281,-9.748765,-0.000274,0.000614,-0.000563,0.323684,1.203980,2.627129,778.93,15.00,highres
9.758611,9791385508,0.646944,0.003118,-9.750883,-0.000102,0.000900,0.000319,0.323684,1.203980,2.627129,778.93,15.00,highres
9.775190,9791402206,0.644091,-0.007983,-9.760742,-0.000230,0.001138,-0.000489,0.323684,1.203980,2.627129,778.93,15.00,highres
9.786387,9791415556,0.650417,0.001621,-9.752218,0.000403,0.001133,0.000764,0.323684,1.203980,2.627129,778.93,15.00,highres
9.793697,9791425334,0.637667,0.012953,-9.739463,0.000797,0.000049,-0.001128,0.323684,1.203980,2.627129,778.93,15.00,highres
9.800098,9791431039,0.633003,0.003549,-9.750728,0.001426,0.001305,-0.001307,0.323684,1.203980,2.627129,778.93,15.00,highres
9.814573,9791440471,0.633493,-0.000673,-9.753695,0.000136,0.000932,-0.001256,0.323684,1.203980,2.627129,778.93,15.00,highres
9.826332,9791446054,0.642067,-0.000808,-9.746899,0.000939,0.000694,0.000774,0.323684,1.203980,2.627129,778.93,15.00,highres
9.835897,9791460420,0.642308,-0.009678,-9.748855,0.001203,0.002268,-0.000261,0.325234,1.200078,2.634644,778.93,15.00,highres
9.846233,9791475651,0.636738,-0.004499,-9.751952,-0.000817,0.000722,0.000179,0.325234,1.200078,2.634644,778.93,15.00,highres
9.855710,9791480238,0.635272,-0.001970,-9.754925,0.000098,0.001685,0.000862,0.325234,1.200078,2.634644,778.93,15.00,highres
9.865343,9791492650,0.636469,-0.006759,-9.744150,-0.000534,0.000821,-0.000264,0.325234,1.200078,2.634644,778.93,15.00,highres
9.873642,9791500404,0.639892,-0.003050,-9.741282,-0.001190,0.000962,0.000316,0.325234,1.200078,2.634644,778.93,15.00,highres
9.887213,9791513884,0.642032,0.006445,-9.754539,-0.001141,0.000694,-0.001249,0.325234,1.200078,2.634644,778.93,15.00,highres
9.893812,9791520362,0.650890,-0.000339,-9.753239,0.000218,0.001194,-0.000321,0.319277,1.206821,2.635675,778.93,15.00,highres
9.898850,9791524982,0.650771,0.008237,-9.754296,0.000815,0.002221,-0.000085,0.319277,1.206821,2.635675,778.93,15.00,highres
9.914452,9791539622,0.640061,0.005212,-9.753728,-0.001610,0.001190,-0.000085,0.319277,1.206821,2.635675,778.93,15.00,highres
9.920302,9791550102,0.642040,0.000546,-9.750095,0.000266,0.000875,-0.001183,0.319277,1.206821,2.635675,778.93,15.00,highres
9.934799,9791559913,0.635205,0.007628,-9.760955,-0.001269,0.001970,0.001190,0.319277,1.206821,2.635675,778.93,15.00,highres
9.945494,9791566151,0.650451,-0.001779,-9.739123,-0.001963,0.001057,-0.000057,0.319277,1.206821,2.635675,778.93,15.00,highres
9.956011,9791573759,0.644311,-0.000773,-9.741801,-0.000102,0.000260,-0.000745,0.319277,1.206821,2.635675,778.93,15.00,highres
9.962506,9791597665,0.652363,0.001256,-9.756429,-0.000712,0.000797,0.000628,0.319277,1.206821,2.635675,778.93,15.00,highres
9.975051,9791603953,0.640985,0.001630,-9.747433,0.000861,0.001693,0.000831,0.319277,1.206821,2.635675,778.93,15.00,highres
9.987484,9791615671,0.633462,0.007636,-9.755598,-0.001249,0.001983,-0.000696,0.325824,1.201153,2.636529,778.93,15.00,highres
9.994035,9791623590,0.644605,-0.005572,-9.750146,0.000388,0.000445,0.000404,0.325824,1.201153,2.636529,778.93,15.00,highres
10.006463,9791635429,0.644041,-0.001998,-9.754951,-0.000096,-0.000020,0.000013,0.325824,1.201153,2.636529,778.93,15.00,highres
10.013512,9791645560,0.640931,-0.004881,-9.758545,-0.000349,0.000337,0.000097,0.325824,1.201153,2.636529,778.93,15.00,highres
10.021304,9791655742,0.639450,-0.000725,-9.757271,-0.001018,0.000057,0.000220,0.326682,1.200816,2.639234,778.93,15.00,highres
10.034457,9791663423,0.643344,0.006603,-9.753224,-0.001152,0.000828,-0.000219,0.326682,1.200816,2.639234,778.93,15.00,highres
10.046787,9791675183,0.635085,0.007145,-9.744887,-0.000647,0.000258,-0.000216,0.326682,1.200816,2.639234,778.93,15.00,highres
10.055206,9791686151,0.635600,-0.001208,-9.748721,0.000204,0.000389,-0.000085,0.326682,1.200816,2.639234,778.92,15.00,highres
10.059238,9791690266,0.633601,-0.000773,-9.755175,0.000304,0.000083,-0.000628,0.326682,1.200816,2.639234,778.92,15.00,highres
10.078527,9791700434,0.653228,0.002538,-9.748838,0.000815,0.001610,0.000831,0.326682,1.200816,2.639234,778.92,15.00,highres
10.080368,9791706483,0.643043,0.008276,-9.749549,0.000543,0.000117,0.000560,0.326682,1.200816,2.639234,778.92,15.00,highres
10.094915,9791718075,0.643017,-0.006124,-9.749431,0.000496,0.001292,-0.000378,0.326682,1.200816,2.639234,778.92,15.00,highres
10.097584,9791729380,0.646990,-0.003674,-9.757067,-0.000407,0.001122,-0.000077,0.326682,1.200816,2.639234,778.92,15.00,highres
10.113477,9791735924,0.646046,-0.003167,-9.754927,0.000509,0.000875,-0.000052,0.326682,1.200816,2.639234,778.92,15.00,highres
10.121540,9791751927,0.635799,-0.002353,-9.747966,-0.000102,0.002527,-0.000696,0.319727,1.202973,2.633252,778.92,15.00,highres
10.135352,9791758987,0.639858,-0.007348,-9.742955,-0.000044,0.000121,-0.000505,0.319727,1.202973,2.633252,778.91,15.00,highres
10.145566,9791769761,0.643117,-0.004942,-9.745968,0.000204,0.001779,0.000116,0.319727,1.202973,2.633252,778.91,15.00,highres
10.155465,9791780957,0.631686,0.000428,-9.754520,-0.000713,0.001305,-0.000696,0.319727,1.202973,2.633252,778.91,15.00,highres
10.157386,9791798036,0.637435,-0.002651,-9.751289,0.000310,0.001187,-0.000038,0.321418,1.200865,2.636663,778.91,15.00,highres
10.175414,9791803173,0.638864,-0.003167,-9.752530,-0.000550,0.000284,-0.000391,0.321418,1.200865,2.636663,778.91,15.00,highres
10.179806,9791813060,0.642063,-0.003563,-9.749737,0.000102,0.000796,0.000831,0.321418,1.200865,2.636663,778.91,15.00,highres
10.195415,9791827275,0.634459,0.006851,-9.758703,0.000142,0.000511,0.000037,0.321418,1.200865,2.636663,778.91,15.00,highres
10.198088,9791833589,0.634722,-0.000989,-9.752867,0.000329,0.001430,-0.000641,0.321418,1.200865,2.636663,778.91,15.00,highres
10.217158,9791849318,0.624477,-0.006577,-9.767349,0.000446,0.002221,0.001626,0.321418,1.200865,2.636663,778.92,15.00,highres
10.228660,9791859182,0.635571,0.002518,-9.752829,-0.001018,0.001610,0.000780,0.321418,1.200865,2.636663,778.92,15.00,highres
10.234292,9791863760,0.646046,0.008749,-9.747481,-0.000712,0.000781,0.001050,0.321418,1.200865,2.636663,778.92,15.00,highres
10.245075,9791876178,0.627999,0.001575,-9.757997,-0.000718,0.001605,0.000670,0.321418,1.200865,2.636663,778.92,15.00,highres
10.255405,9791880904,0.653933,0.008087,-9.743682,-0.000318,0.002024,0.000023,0.321418,1.200865,2.636663,778.92,15.00,highres
10.261127,9791893337,0.648861,-0.003067,-9.762208,0.000400,0.001371,0.001311,0.323162,1.200168,2.632003,778.92,15.00,highres
10.274482,9791906345,0.644849,-0.008413,-9.741019,-0.000596,0.000928,0.000759,0.323162,1.200168,2.632003,778.92,15.00,highres
10.274482,9791916794,0.634006,0.003748,-9.746081,0.000628,0.000644,0.000407,0.323162,1.200168,2.632003,778.92,15.00,highres
10.274482,9791926540,0.641761,-0.000965,-9.759210,0.000421,0.001747,0.000566,0.323162,1.200168,2.632003,778.92,15.00,highres
10.274482,9791934697,0.642031,-0.003959,-9.755737,0.000819,-0.000020,0.000225,0.323044,1.203278,2.629449,778.92,15.00,highres
10.315710,9791946841,0.642961,-0.000881,-9.748279,-0.000257,0.001460,0.000075,0.323044,1.203278,2.629449,778.92,15.00,highres
10.321129,9791953411,0.643118,-0.002373,-9.752142,0.000204,0.002025,-0.000085,0.323044,1.203278,2.629449,778.92,15.00,highres
10.334272,9791966920,0.646255,-0.002228,-9.749617,0.000615,0.000245,-0.000696,0.323044,1.203278,2.629449,778.92,15.00,highres
10.345170,9791973386,0.634395,-0.000215,-9.748301,0.000978,0.000694,-0.000197,0.323044,1.203278,2.629449,778.92,15.00,highres
10.355505,9791983522,0.630922,0.006934,-9.746020,-0.000294,-0.000222,0.000194,0.323044,1.203278,2.629449,778.92,15.00,highres
10.358928,9791996104,0.642881,-0.004708,-9.754925,0.000204,0.001000,-0.000582,0.323044,1.203278,2.629449,778.92,15.00,highres
10.377996,9792003398,0.642455,-0.008458,-9.751510,-0.000310,0.000291,-0.000696,0.323044,1.203278,2.629449,778.92,15.00,highres
10.380069,9792011853,0.641264,-0.000366,-9.764094,-0.000102,0.000594,0.000116,0.323044,1.203278,2.629449,778.92,15.00,highres
10.395222,9792024364,0.642039,-0.002337,-9.760521,0.000914,0.001411,-0.000696,0.322017,1.206804,2.635294,778.92,15.00,highres
10.398730,9792033914,0.638230,0.011689,-9.755418,-0.000407,0.001305,-0.000085,0.322017,1.206804,2.635294,778.92,15.00,highres
10.413353,9792044018,0.640704,-0.009706,-9.739364,-0.000111,0.000361,0.000229,0.322017,1.206804,2.635294,778.92,15.00,highres
10.420499,9792050914,0.640473,0.002144,-9.749986,-0.000184,0.001111,-0.000197,0.322017,1.206804,2.635294,778.92,15.00,highres
10.434983,9792061691,0.634555,0.000662,-9.751573,-0.001018,0.001305,-0.000085,0.322017,1.206804,2.635294,778.92,15.00,highres
10.444832,9792071276,0.648570,-0.006759,-9.751787,-0.000611,0.000898,-0.000391,0.322868,1.205490,2.630521,778.92,15.00,highres
10.454496,9792078298,0.649637,0.000424,-9.750137,0.000080,0.000447,-0.000514,0.322868,1.205490,2.630521,778.91,15.00,highres
10.458182,9792089246,0.636815,0.000597,-9.757146,-0.000713,0.001017,-0.001194,0.322868,1.205490,2.630521,778.91,15.00,highres
10.473662,9792100906,0.636469,0.000424,-9.744150,-0.000287,0.001610,0.000034,0.322868,1.205490,2.630521,778.91,15.00,highres
10.487315,9792112476,0.650930,-0.004101,-9.755245,0.000034,0.000997,0.000463,0.322868,1.205490,2.630521,778.91,15.00,highres
10.494283,9792121107,0.650729,0.008242,-9.744148,-0.000711,-0.000836,-0.000110,0.322868,1.205490,2.630521,778.91,15.00,highres
10.499152,9792126186,0.658280,0.006856,-9.747479,-0.000226,-0.000117,0.000249,0.322868,1.205490,2.630521,778.91,15.00,highres
10.517102,9792139932,0.640871,-0.006052,-9.748727,0.000511,-0.000379,-0.000949,0.322868,1.205490,2.630521,778.91,15.00,highres
10.521308,9792146389,0.645709,-0.009743,-9.752425,0.000352,0.000798,-0.000615,0.322868,1.205490,2.630521,778.91,15.00,highres
10.534109,9792158390,0.640026,0.008805,-9.748373,-0.000405,0.001913,-0.000110,0.322868,1.205490,2.630521,778.92,15.00,highres
10.545956,9792171745,0.638984,0.006047,-9.744311,-0.000037,0.001729,-0.000110,0.326537,1.205722,2.628602,778.92,15.00,highres
10.556238,9792176277,0.633994,0.001255,-9.754313,-0.000405,0.000574,-0.000228,0.326537,1.205722,2.628602,778.92,15.00,highres
10.562184,9792189208,0.646011,-0.003254,-9.752857,-0.000105,0.000231,0.000035,0.326537,1.205722,2.628602,778.92,15.00,highres
10.573614,9792198279,0.638227,0.003420,-9.745378,0.000205,0.000692,-0.000110,0.326537,1.205722,2.628602,778.92,15.00,highres
10.587425,9792203316,0.634041,0.007608,-9.739993,0.000511,0.000692,-0.000110,0.321768,1.213066,2.632599,778.92,15.00,highres
10.594423,9792209851,0.636356,0.000930,-9.751806,0.000052,-0.000224,-0.000722,0.321768,1.213066,2.632599,778.92,15.00,highres
10.605616,9792234136,0.642897,0.000669,-9.756023,0.000816,-0.000039,-0.000655,0.321768,1.213066,2.632599,778.92,15.00,highres
10.614306,9792243528,0.643418,-0.006842,-9.754075,-0.000100,0.000179,-0.000841,0.321768,1.213066,2.632599,778.92,15.00,highres
10.621263,9792253735,0.642420,0.007608,-9.757952,-0.001016,-0.001141,-0.000110,0.321768,1.213066,2.632599,778.92,15.00,highres
10.633825,9792259915,0.641873,0.005658,-9.753162,-0.000403,0.001182,0.000073,0.321768,1.213066,2.632599,778.92,15.00,highres
10.645377,9792276578,0.652890,0.006518,-9.747177,0.000205,-0.000051,-0.000458,0.321768,1.213066,2.632599,778.92,15.00,highres
10.655890,9792281292,0.638258,-0.003165,-9.747802,-0.000072,0.001025,-0.000554,0.321768,1.213066,2.632599,778.92,15.00,highres
10.657727,9792297315,0.646154,-0.001075,-9.750640,0.000511,0.001111,0.000273,0.321768,1.213066,2.632599,778.92,15.00,highres
10.675458,9792303611,0.632093,-0.001055,-9.754501,0.000128,-0.000458,0.000423,0.326914,1.206272,2.628910,778.92,15.00,highres
10.679221,9792314089,0.649066,-0.002165,-9.754161,-0.000405,0.000180,-0.000317,0.326914,1.206272,2.628910,778.92,15.00,highres
10.694915,9792324162,0.646120,-0.001968,-9.750963,-0.000405,-0.000225,0.000231,0.326914,1.206272,2.628910,778.91,15.00,highres
10.698604,9792334634,0.641595,-0.000248,-9.750716,0.000193,0.000692,-0.000110,0.326914,1.206272,2.628910,778.91,15.00,highres
10.714019,9792344241,0.635238,-0.006757,-9.750767,-0.000405,-0.000836,-0.000416,0.326914,1.206272,2.628910,778.91,15.00,highres
10.726109,9792353762,0.644308,-0.004363,-9.744782,-0.000922,0.001103,0.000401,0.326914,1.206272,2.628910,778.91,15.00,highres
10.734746,9792366997,0.632707,-0.000771,-9.749263,-0.000022,0.001076,-0.000154,0.323688,1.202922,2.635700,778.91,15.00,highres
10.745602,9792376914,0.646688,0.008805,-9.741191,0.000026,0.000583,0.000051,0.323688,1.202922,2.635700,778.91,15.00,highres
10.756208,9792381770,0.631310,-0.003018,-9.761435,-0.000535,0.001255,-0.000463,0.323688,1.202922,2.635700,778.91,15.00,highres
10.766178,9792394915,0.639589,0.001001,-9.750768,0.000035,-0.000542,0.000048,0.323688,1.202922,2.635700,778.91,15.00,highres
10.774537,9792407023,0.638829,0.001623,-9.762870,0.001171,-0.000176,0.000097,0.323688,1.202922,2.635700,778.91,15.00,highres
10.787442,9792414673,0.648206,0.006411,-9.748572,0.000436,0.001387,-0.000185,0.323688,1.202922,2.635700,778.91,15.00,highres
10.794245,9792424440,0.643118,-0.001271,-9.745197,-0.000602,0.000270,-0.000001,0.323688,1.202922,2.635700,778.91,15.00,highres
10.798466,9792432358,0.654167,-0.001460,-9.744456,-0.000628,-0.000447,-0.000545,0.323688,1.202922,2.635700,778.91,15.00,highres
10.813719,9792444379,0.638829,-0.005560,-9.755599,0.000525,-0.000558,-0.000402,0.323688,1.202922,2.635700,778.91,15.00,highres
10.821928,9792449249,0.632844,0.004436,-9.747670,0.000205,-0.000225,0.000501,0.323013,1.206536,2.632803,778.91,15.00,highres
10.836329,9792453569,0.643056,-0.000873,-9.755607,-0.000864,-0.000377,-0.000416,0.323013,1.206536,2.632803,778.91,15.00,highres
10.845728,9792469359,0.644567,0.013103,-9.748868,-0.000100,-0.000045,0.000716,0.323013,1.206536,2.632803,778.91,15.00,highres
10.854719,9792479470,0.641071,0.007593,-9.752529,-0.001623,0.000021,0.000195,0.323013,1.206536,2.632803,778.91,15.00,highres
10.857833,9792492088,0.642026,-0.003049,-9.750534,0.000063,0.001608,-0.001007,0.315279,1.207595,2.631950,778.91,15.00,highres
10.874223,9792497313,0.634078,0.003379,-9.760308,-0.001118,0.001200,0.000499,0.315279,1.207595,2.631950,778.91,15.00,highres
10.887495,9792509875,0.655147,-0.000446,-9.741087,0.000794,0.000386,-0.000838,0.315279,1.207595,2.631950,778.91,15.00,highres
10.894471,9792517922,0.645421,0.004312,-9.761509,0.001048,0.000829,0.001354,0.315279,1.207595,2.631950,778.91,15.00,highres
10.897906,9792528808,0.634619,0.000439,-9.748363,0.000348,0.000630,-0.000477,0.315279,1.207595,2.631950,778.91,15.00,highres
10.914132,9792547308,0.644057,-0.003984,-9.763812,0.000485,0.000054,-0.000814,0.315279,1.207595,2.631950,778.91,15.00,highres
10.920965,9792551387,0.648925,-0.004622,-9.765031,-0.000711,0.001749,0.000007,0.315279,1.207595,2.631950,778.91,15.00,highres
10.933681,9792562716,0.631353,0.013056,-9.755435,0.000332,-0.000225,-0.000237,0.315279,1.207595,2.631950,778.91,15.00,highres
10.946300,9792574062,0.632359,-0.001491,-9.753646,-0.001078,0.000877,0.000379,0.315279,1.207595,2.631950,778.91,15.00,highres
10.957001,9792587399,0.641259,0.001470,-9.749220,0.000384,0.000047,0.000051,0.315279,1.207595,2.631950,778.91,15.00,highres
10.960951,9792592186,0.643617,0.002820,-9.751966,-0.000100,-0.000836,-0.000416,0.325996,1.198733,2.631976,778.91,15.00,highres
10.974354,9792603847,0.640975,-0.002010,-9.749983,-0.000788,0.001340,-0.000110,0.325996,1.198733,2.631976,778.91,15.00,highres
10.987207,9792613879,0.650324,-0.010309,-9.751490,0.000009,-0.000421,-0.000503,0.325996,1.198733,2.631976,778.91,15.00,highres
10.994606,9792620532,0.645707,-0.012831,-9.758057,-0.000649,-0.000043,-0.000232,0.325996,1.198733,2.631976,778.91,15.00,highres
11.005566,9792635416,0.646813,-0.000640,-9.752234,-0.000066,-0.000122,-0.000585,0.322496,1.199802,2.623673,778.91,15.00,highres
11.014609,9792644111,0.649135,0.000775,-9.743645,0.000511,0.000386,0.000576,0.322496,1.199802,2.623673,778.90,15.00,highres
11.022463,9792654377,0.640026,0.005214,-9.755421,-0.000206,0.000997,-0.000416,0.322496,1.199802,2.623673,778.90,15.00,highres
11.035925,9792663939,0.640035,0.006663,-9.762270,-0.000955,0.000019,-0.000355,0.322496,1.199802,2.623673,778.90,15.00,highres
11.045575,9792670402,0.646558,0.016638,-9.757743,0.000209,0.000238,0.000353,0.322496,1.199802,2.623673,778.90,15.00,highres
11.056502,9792682797,0.637632,0.004174,-9.750337,-0.000861,0.000231,0.000351,0.322496,1.199802,2.623673,778.90,15.00,highres
11.058129,9792694724,0.648354,-0.003435,-9.750550,0.001247,0.001067,0.000681,0.322496,1.199802,2.623673,778.90,15.00,highres
11.073926,9792703554,0.638931,-0.001663,-9.751112,-0.000451,-0.000355,0.000546,0.322496,1.199802,2.623673,778.90,15.00,highres
11.078158,9792714603,0.629252,0.005214,-9.768723,-0.000711,0.000386,0.000501,0.322496,1.199802,2.623673,778.90,15.00,highres
11.095514,9792724684,0.637632,0.001704,-9.743404,0.000423,0.000277,-0.000001,0.322496,1.199802,2.623673,778.90,15.00,highres
11.099439,9792733908,0.635225,0.000426,-9.758195,-0.000804,0.001210,-0.000416,0.323832,1.208693,2.634334,778.90,15.00,highres
11.114597,9792741834,0.639584,-0.000145,-9.751209,-0.000229,0.000386,-0.000463,0.323832,1.208693,2.634334,778.90,15.00,highres
11.120721,9792754659,0.643617,-0.005560,-9.750767,0.000641,0.001562,-0.000194,0.323832,1.208693,2.634334,778.90,15.00,highres
11.135869,9792766943,0.643559,-0.007261,-9.743523,0.000355,0.000977,-0.000565,0.323832,1.208693,2.634334,778.90,15.00,highres
11.144656,9792772456,0.642883,0.000888,-9.756401,-0.000711,0.000692,-0.000721,0.326291,1.200935,2.627188,778.90,15.00,highres
11.156628,9792784911,0.638829,-0.000771,-9.749569,-0.000011,0.000603,0.000718,0.326291,1.200935,2.627188,778.90,15.00,highres
11.167212,9792794089,0.643758,0.007221,-9.748199,0.001427,-0.000177,0.000034,0.326291,1.200935,2.627188,778.90,15.00,highres
11.173623,9792806908,0.643222,-0.004494,-9.754094,-0.000711,0.000081,-0.000110,0.326291,1.200935,2.627188,778.90,15.00,highres
11.179215,9792815232,0.639550,0.007368,-9.758424,-0.000509,0.000287,-0.000213,0.326291,1.200935,2.627188,778.90,15.00,highres
11.193549,9792826760,0.634445,0.001188,-9.762738,-0.000707,0.000695,0.000096,0.326291,1.200935,2.627188,778.90,15.00,highres
11.197485,9792837875,0.642416,-0.014895,-9.735688,-0.000711,0.001667,-0.000232,0.326291,1.200935,2.627188,778.90,15.00,highres
11.213593,9792847537,0.633963,0.012241,-9.741053,-0.000356,0.000386,-0.000849,0.326291,1.200935,2.627188,778.90,15.00,highres
11.220824,9792855318,0.643771,0.017327,-9.750252,0.000091,0.001092,0.000711,0.326291,1.200935,2.627188,778.90,15.00,highres
11.235059,9792860346,0.632844,-0.016333,-9.768723,-0.001322,0.000081,-0.000721,0.326291,1.200935,2.627188,778.90,15.00,highres
11.246278,9792880174,0.638090,-0.000736,-9.758336,-0.000504,0.000416,0.001082,0.324128,1.201988,2.632786,778.90,15.00,highres
11.255638,9792884160,0.627488,0.001803,-9.780694,-0.001627,-0.000542,-0.001014,0.324128,1.201988,2.632786,778.90,15.00,highres
11.258871,9792896955,0.655320,0.000032,-9.726561,0.001309,0.000031,0.000688,0.324128,1.201988,2.632786,778.90,15.00,highres
11.275008,9792903041,0.646125,0.000619,-9.760502,-0.001676,-0.001013,0.000195,0.324128,1.201988,2.632786,778.90,15.00,highres
11.275008,9792911841,0.629288,0.008383,-9.753549,0.000989,0.000478,0.000195,0.324128,1.201988,2.632786,778.90,15.00,highres
11.275008,9792924293,0.650802,-0.009945,-9.751965,0.000002,0.000487,-0.000110,0.316157,1.206682,2.632397,778.90,15.00,highres
11.275008,9792934472,0.638323,-0.003511,-9.762658,-0.001489,0.001578,-0.000445,0.316157,1.206682,2.632397,778.90,15.00,highres
11.316533,9792947090,0.644442,0.000798,-9.751806,-0.000293,-0.001173,0.000195,0.316157,1.206682,2.632397,778.90,15.00,highres
11.320151,9792957052,0.635683,-0.005295,-9.751518,-0.000349,-0.000518,-0.000042,0.316157,1.206682,2.632397,778.90,15.00,highres
11.333982,9792962879,0.635238,-0.017747,-9.749788,-0.000327,0.000535,-0.000302,0.316157,1.206682,2.632397,778.90,15.00,highres
11.345184,9792971655,0.640026,0.007754,-9.743440,0.000205,-0.001446,-0.000110,0.316157,1.206682,2.632397,778.90,15.00,highres
11.356203,9792983253,0.633689,-0.001825,-9.751328,-0.000817,0.000187,0.000195,0.316157,1.206682,2.632397,778.90,15.00,highres
11.358360,9792995286,0.642420,0.007608,-9.754359,0.000044,0.001285,-0.000110,0.316157,1.206682,2.632397,778.90,15.00,highres
11.373901,9793004462,0.639425,-0.002565,-9.746589,0.000448,0.000140,0.000317,0.316157,1.206682,2.632397,778.90,15.00,highres
11.379504,9793009774,0.637628,-0.003963,-9.747575,0.000511,0.000692,-0.000416,0.323446,1.202717,2.627797,778.90,15.00,highres
11.395673,9793019704,0.644066,-0.008253,-9.750018,-0.000797,0.000888,-0.001090,0.323446,1.202717,2.627797,778.90,15.00,highres
11.401549,9793030283,0.646170,0.006570,-9.745979,-0.000711,-0.000836,-0.000416,0.323446,1.202717,2.627797,778.90,15.00,highres
11.414769,9793039437,0.636435,0.002820,-9.749570,-0.001016,0.000997,-0.000721,0.323446,1.202717,2.627797,778.89,15.00,highres
11.420928,9793050435,0.638829,0.007608,-9.749571,-0.000395,-0.000045,0.000195,0.323446,1.202717,2.627797,778.89,15.00,highres
11.433947,9793061874,0.650871,0.006339,-9.750624,-0.000783,-0.000925,0.000878,0.319542,1.206563,2.631791,778.89,15.00,highres
11.445448,9793071984,0.635238,-0.004363,-9.751965,0.000362,0.000685,0.000202,0.319542,1.206563,2.631791,778.89,15.00,highres
11.456591,9793081887,0.634580,0.002162,-9.753045,-0.000290,-0.000110,0.000806,0.319542,1.206563,2.631791,778.89,15.00,highres
11.457873,9793087487,0.629873,0.002243,-9.757920,0.000324,0.000640,0.001655,0.319542,1.206563,2.631791,778.89,15.00,highres
11.476472,9793099725,0.644958,0.005357,-9.762213,-0.001046,0.001272,0.000257,0.319542,1.206563,2.631791,778.89,15.00,highres
11.478846,9793110089,0.636772,-0.005130,-9.754638,0.000908,0.000559,0.000236,0.319542,1.206563,2.631791,778.89,15.00,highres
11.494579,9793117032,0.640876,-0.004710,-9.749917,-0.000100,0.000801,0.000391,0.319542,1.206563,2.631791,778.89,15.00,highres
11.499969,9793130232,0.645261,-0.011554,-9.746424,-0.000025,0.000104,0.000272,0.319542,1.206563,2.631791,778.89,15.00,highres
11.516830,9793139738,0.637607,-0.004372,-9.752915,-0.000221,0.000599,-0.000115,0.320489,1.207851,2.629404,778.89,15.00,highres
11.520646,9793150067,0.640631,-0.002237,-9.735461,-0.000106,-0.000646,0.000310,0.320489,1.207851,2.629404,778.89,15.00,highres
11.536243,9793154876,0.641198,-0.007375,-9.750637,-0.000106,-0.000015,0.000087,0.320489,1.207851,2.629404,778.89,15.00,highres
11.546769,9793169482,0.635614,0.007599,-9.759366,0.000199,-0.000527,-0.000421,0.320489,1.207851,2.629404,778.89,15.00,highres
11.555530,9793179510,0.644789,0.000416,-9.757704,-0.000717,0.002833,0.000801,0.320489,1.207851,2.629404,778.89,15.00,highres
11.557553,9793191689,0.640865,0.002267,-9.749978,-0.001378,0.000325,-0.000484,0.326286,1.199189,2.639880,778.89,15.00,highres
11.577781,9793202261,0.638012,0.007193,-9.756911,0.000532,0.001139,0.001246,0.326286,1.199189,2.639880,778.89,15.00,highres
11.586977,9793211736,0.641197,-0.004372,-9.760097,0.000043,0.001604,-0.000193,0.326286,1.199189,2.639880,778.89,15.00,highres
11.593644,9793222507,0.649601,-0.002744,-9.754877,0.001421,0.001306,0.000190,0.326286,1.199189,2.639880,778.89,15.00,highres
11.598708,9793228007,0.639249,0.001168,-9.762046,0.000167,-0.000254,-0.000024,0.326286,1.199189,2.639880,778.89,15.00,highres
11.613910,9793239649,0.642395,-0.000781,-9.750521,-0.001088,0.001197,-0.000181,0.326286,1.199189,2.639880,778.89,15.00,highres
11.622408,9793252249,0.648664,-0.001065,-9.753969,0.001421,-0.000324,-0.000728,0.326286,1.199189,2.639880,778.89,15.00,highres
11.635216,9793257591,0.654345,0.001030,-9.747533,-0.000349,-0.000087,-0.000456,0.326286,1.199189,2.639880,778.89,15.00,highres
11.645216,9793268200,0.638490,0.001737,-9.749166,-0.000209,0.000286,0.001004,0.326286,1.199189,2.639880,778.89,15.00,highres
11.657140,9793279882,0.641117,0.003927,-9.760495,-0.000309,-0.000222,-0.000623,0.314494,1.201629,2.631650,778.88,15.00,highres
11.663815,9793293101,0.642774,0.006022,-9.747249,-0.000412,0.001306,-0.000518,0.314494,1.201629,2.631650,778.88,15.00,highres
11.676018,9793302449,0.638508,0.010894,-9.758981,-0.000153,-0.000222,-0.000115,0.314494,1.201629,2.631650,778.88,15.00,highres
11.679814,9793309576,0.641198,0.006402,-9.757702,-0.000299,0.000229,0.000463,0.314494,1.201629,2.631650,778.88,15.00,highres
11.693981,9793319393,0.636869,-0.011554,-9.757458,-0.000479,0.002061,-0.000115,0.314494,1.201629,2.631650,778.88,15.00,highres
11.706885,9793324679,0.636409,-0.004626,-9.744860,-0.000188,0.001397,-0.001031,0.327392,1.198432,2.628173,778.88,15.00,highres
11.715307,9793330402,0.636747,-0.003372,-9.742606,0.000199,0.000568,-0.000599,0.327392,1.198432,2.628173,778.88,15.00,highres
11.721378,9793342701,0.646555,0.001898,-9.747783,0.000504,0.000695,0.001412,0.327392,1.198432,2.628173,778.88,15.00,highres
11.733871,9793356046,0.633436,0.009226,-9.745396,-0.000315,0.001112,-0.000212,0.327392,1.198432,2.628173,778.88,15.00,highres
11.745479,9793362355,0.637439,0.000644,-9.747671,-0.000306,0.002011,-0.000526,0.327392,1.198432,2.628173,778.88,15.00,highres
11.755823,9793374610,0.640005,0.001015,-9.752312,-0.000576,0.000624,-0.000961,0.327392,1.198432,2.628173,778.88,15.00,highres
11.757578,9793393557,0.629737,0.001784,-9.757700,-0.000424,0.000842,0.000359,0.327392,1.198432,2.628173,778.88,15.00,highres
11.774876,9793408036,0.636426,0.004412,-9.750908,-0.000614,0.000084,-0.000829,0.327392,1.198432,2.628173,778.88,15.00,highres
11.786312,9793412257,0.640446,-0.001324,-9.754112,-0.000660,0.000141,0.000023,0.327392,1.198432,2.628173,778.88,15.00,highres
11.794082,9793424913,0.635143,-0.004883,-9.751718,0.000190,-0.000684,-0.000874,0.327392,1.198432,2.628173,778.88,15.00,highres
11.797722,9793431297,0.637227,0.002164,-9.748221,-0.000271,-0.000880,-0.000726,0.320177,1.199126,2.630722,778.88,15.00,highres
11.815351,9793445872,0.650288,-0.000051,-9.746685,-0.000412,-0.000222,0.000496,0.320177,1.199126,2.630722,778.89,15.00,highres
11.820937,9793449926,0.648380,-0.000629,-9.746480,-0.000729,-0.000697,-0.000568,0.320177,1.199126,2.630722,778.89,15.00,highres
11.834765,9793459878,0.635316,-0.006351,-9.750729,-0.000106,0.000695,0.001107,0.320177,1.199126,2.630722,778.89,15.00,highres
11.846044,9793471012,0.651426,0.002992,-9.753240,-0.001023,-0.000375,-0.000268,0.326101,1.203522,2.623493,778.89,15.00,highres
11.856073,9793475269,0.650395,0.010489,-9.759398,-0.000893,0.000037,0.000367,0.326101,1.203522,2.623493,778.89,15.00,highres
11.858644,9793488183,0.643592,0.006402,-9.747089,-0.000638,0.001275,0.000496,0.326101,1.203522,2.623493,778.89,15.00,highres
11.874129,9793500363,0.645074,0.000921,-9.754616,0.000673,0.001368,0.001275,0.326101,1.203522,2.623493,778.89,15.00,highres
11.879213,9793512682,0.640259,0.009281,-9.746477,-0.000847,0.000763,-0.000114,0.326101,1.203522,2.623493,778.89,15.00,highres
11.894251,9793523034,0.631060,-0.003929,-9.747639,-0.000593,0.000551,0.000028,0.326101,1.203522,2.623493,778.89,15.00,highres
11.899006,9793533445,0.647795,-0.004485,-9.743423,-0.000493,0.001462,-0.000577,0.326101,1.203522,2.623493,778.89,15.00,highres
11.915141,9793545483,0.634197,-0.006418,-9.749156,0.000401,0.000493,-0.000824,0.326101,1.203522,2.623493,778.89,15.00,highres
11.920741,9793557333,0.643327,0.007070,-9.745342,0.000504,0.000756,-0.000339,0.326101,1.203522,2.623493,778.89,15.00,highres
11.934867,9793563197,0.636409,0.004007,-9.751718,-0.000540,0.000597,-0.000372,0.322272,1.202792,2.630843,778.89,15.00,highres
11.945685,9793575630,0.639489,0.007029,-9.743851,0.000539,-0.000017,-0.000386,0.322272,1.202792,2.630843,778.89,15.00,highres
11.956971,9793585354,0.650977,-0.001430,-9.745185,-0.000412,0.000878,-0.000177,0.322272,1.202792,2.630843,778.89,15.00,highres
11.960108,9793597313,0.648464,-0.003411,-9.746052,-0.000412,0.001999,0.000039,0.322272,1.202792,2.630843,778.89,15.00,highres
11.973601,9793602514,0.644789,-0.004372,-9.743338,0.000199,0.002185,-0.000745,0.322272,1.202792,2.630843,778.89,15.00,highres
11.979218,9793612555,0.646813,-0.002366,-9.745557,0.000625,-0.000344,0.000130,0.322409,1.197143,2.632199,778.89,15.00,highres
11.995531,9793625498,0.647205,-0.006744,-9.754912,0.000020,0.001410,0.000622,0.322409,1.197143,2.632199,778.89,15.00,highres
11.999366,9793637467,0.636939,-0.007963,-9.753425,0.000199,0.002662,-0.000726,0.322409,1.197143,2.632199,778.89,15.00,highres
12.015360,9793643536,0.648985,0.001626,-9.744553,0.000504,0.001610,0.000038,0.322409,1.197143,2.632199,778.89,15.00,highres
12.020567,9793652645,0.647183,-0.004172,-9.747696,0.000199,-0.000222,0.000106,0.322409,1.197143,2.632199,778.89,15.00,highres
12.034907,9793668196,0.642099,0.008181,-9.752222,0.000001,0.000183,-0.000016,0.322409,1.197143,2.632199,778.89,15.00,highres
12.047411,9793672669,0.636246,-0.002141,-9.743692,-0.000454,0.000126,0.000322,0.322409,1.197143,2.632199,778.89,15.00,highres
12.057520,9793684768,0.641249,0.005934,-9.746980,-0.000627,0.000875,-0.000240,0.322409,1.197143,2.632199,778.89,15.00,highres
12.059149,9793695207,0.641931,0.001344,-9.751795,0.000392,0.000389,-0.000195,0.322409,1.197143,2.632199,778.89,15.00,highres
12.074259,9793707853,0.638803,-0.005640,-9.743375,0.000513,0.001314,-0.000124,0.321604,1.197861,2.624573,778.89,15.00,highres
12.078096,9793712819,0.631906,-0.002567,-9.745732,0.000924,-0.000527,0.000573,0.321604,1.197861,2.624573,778.89,15.00,highres
12.097371,9793719677,0.633449,0.004007,-9.750521,-0.000018,0.000498,0.000496,0.321604,1.197861,2.624573,778.89,15.00,highres
12.099835,9793730249,0.638881,-0.000626,-9.755309,0.000409,0.000704,0.000085,0.321604,1.197861,2.624573,778.89,15.00,highres
12.115155,9793749144,0.636409,0.002416,-9.756498,0.000538,0.001272,0.000360,0.321604,1.197861,2.624573,778.89,15.00,highres
12.128377,9793757492,0.633885,-0.000117,-9.754645,-0.000445,0.000728,-0.000284,0.322182,1.204515,2.628692,778.89,15.00,highres
12.135329,9793766218,0.641730,0.002367,-9.760540,-0.000814,0.000472,-0.000324,0.322182,1.204515,2.628692,778.88,15.00,highres
12.145074,9793770538,0.636734,0.003571,-9.755855,0.000227,-0.000249,-0.000115,0.322182,1.204515,2.628692,778.88,15.00,highres
12.155202,9793783164,0.637606,0.011668,-9.750993,-0.000290,0.001000,-0.000727,0.322182,1.204515,2.628692,778.88,15.00,highres
12.157601,9793792857,0.632961,-0.000709,-9.751067,-0.000264,0.000232,-0.000272,0.322182,1.204515,2.628692,778.88,15.00,highres
12.174839,9793809529,0.641746,-0.011453,-9.739265,0.000496,0.000662,-0.000099,0.322182,1.204515,2.628692,778.88,15.00,highres
12.187561,9793812898,0.642520,0.004973,-9.757115,-0.001507,0.001359,0.001191,0.322182,1.204515,2.628692,778.88,15.00,highres
12.193851,9793825447,0.636712,0.003403,-9.738142,-0.000035,0.001377,0.000568,0.322182,1.204515,2.628692,778.88,15.00,highres
12.199817,9793832760,0.635235,-0.004936,-9.745664,-0.000351,0.000023,-0.000787,0.322182,1.204515,2.628692,778.88,15.00,highres
12.214072,9793843125,0.632511,-0.001784,-9.739942,-0.000717,0.000026,-0.000282,0.327920,1.208609,2.631124,778.88,15.00,highres
12.220421,9793848420,0.645986,-0.003465,-9.745817,-0.000180,0.000505,-0.000421,0.327920,1.208609,2.631124,778.88,15.00,highres
12.237037,9793865802,0.635511,-0.000818,-9.746405,0.000341,0.000389,-0.000562,0.327920,1.208609,2.631124,778.88,15.00,highres
12.245734,9793870671,0.627422,-0.004372,-9.751110,0.000439,0.001396,0.000671,0.327920,1.208609,2.631124,778.88,15.00,highres
12.256768,9793882133,0.643041,0.010639,-9.736707,-0.000285,0.001560,-0.000345,0.320108,1.201742,2.630391,778.88,15.00,highres
12.258862,9793886288,0.641920,0.006729,-9.751062,0.000728,0.001000,-0.000197,0.320108,1.201742,2.630391,778.88,15.00,highres
12.274055,9793906212,0.644789,-0.004372,-9.750522,-0.000081,0.000033,0.000547,0.320108,1.201742,2.630391,778.88,15.00,highres
12.278909,9793916634,0.637818,0.006296,-9.757263,0.000199,-0.000859,-0.000281,0.320108,1.201742,2.630391,778.88,15.00,highres
12.278909,9793923307,0.638692,0.009469,-9.747975,-0.000488,0.001000,0.000063,0.320108,1.201742,2.630391,778.89,15.00,highres
12.278909,9793938305,0.646775,0.001584,-9.747738,0.000020,0.000084,-0.000115,0.320108,1.201742,2.630391,778.89,15.00,highres
12.319744,9793950703,0.651726,-0.004385,-9.744549,-0.000461,0.000389,-0.000903,0.320108,1.201742,2.630391,778.89,15.00,highres
12.322087,9793956252,0.647183,-0.000781,-9.748126,-0.000353,0.001000,-0.000849,0.320108,1.201742,2.630391,778.89,15.00,highres
12.334776,9793963311,0.645257,-0.002446,-9.757182,-0.000412,-0.001006,0.000148,0.320108,1.201742,2.630391,778.89,15.00,highres
12.346084,9793975563,0.641522,0.007416,-9.757844,0.000199,0.000244,-0.000115,0.320108,1.201742,2.630391,778.89,15.00,highres
12.355197,9793985814,0.636953,-0.005569,-9.748952,-0.000295,0.000528,0.000285,0.323622,1.199443,2.632549,778.89,15.00,highres
12.358459,9793990802,0.642524,0.003506,-9.753417,-0.000717,0.000695,0.000190,0.323622,1.199443,2.632549,778.89,15.00,highres
12.374336,9794000481,0.632344,0.001340,-9.748847,0.000003,0.001196,0.001281,0.323622,1.199443,2.632549,778.89,15.00,highres
12.382787,9794010500,0.647309,0.009192,-9.762633,-0.000174,-0.000289,-0.000286,0.323622,1.199443,2.632549,778.89,15.00,highres
12.394751,9794016007,0.637080,-0.004516,-9.772017,0.000121,0.000667,-0.000293,0.326020,1.204091,2.629030,778.89,15.00,highres
12.398123,9794022800,0.650803,0.007057,-9.748554,-0.000143,0.000280,-0.000970,0.326020,1.204091,2.629030,778.89,15.00,highres
12.414343,9794036074,0.624929,-0.004934,-9.755020,0.000187,0.000084,-0.000103,0.326020,1.204091,2.629030,778.89,15.00,highres
12.421217,9794046642,0.645003,0.002739,-9.734255,-0.001328,0.000942,0.000127,0.326020,1.204091,2.629030,778.89,15.00,highres
12.435103,9794056308,0.625600,0.009376,-9.747332,0.001020,-0.000011,0.001096,0.326020,1.204091,2.629030,778.89,15.00,highres
12.446614,9794063256,0.630424,-0.000781,-9.739746,-0.000317,-0.000725,0.000599,0.326020,1.204091,2.629030,778.89,15.00,highres
12.455567,9794077981,0.639957,-0.002065,-9.751674,-0.000184,0.000503,0.000687,0.326020,1.204091,2.629030,778.88,15.00,highres
12.461210,9794083136,0.634312,0.006852,-9.759723,-0.000597,-0.000123,-0.000377,0.326020,1.204091,2.629030,778.88,15.00,highres
12.474852,9794095979,0.639477,0.007176,-9.755833,-0.001328,0.000939,0.000679,0.326020,1.204091,2.629030,778.88,15.00,highres
12.486931,9794100926,0.636125,0.002946,-9.749743,-0.000412,0.000389,0.000190,0.326020,1.204091,2.629030,778.88,15.00,highres
12.495455,9794106152,0.642948,-0.001386,-9.740943,-0.000455,0.000912,-0.000988,0.325112,1.204177,2.630870,778.88,15.00,highres
12.498766,9794117881,0.641355,0.006030,-9.750204,-0.000608,0.001104,0.000392,0.325112,1.204177,2.630870,778.88,15.00,highres
12.514914,9794122971,0.632465,-0.009729,-9.760449,-0.000412,0.001000,-0.000421,0.325112,1.204177,2.630870,778.88,15.00,highres
12.520337,9794133121,0.632860,-0.016959,-9.753751,0.000039,0.000256,-0.000733,0.325112,1.204177,2.630870,778.88,15.00,highres
12.533677,9794164134,0.636297,0.002101,-9.755317,-0.000007,0.000918,-0.000426,0.320503,1.201751,2.631517,778.89,15.00,highres
12.544646,9794175939,0.647514,0.007156,-9.753488,-0.000990,0.000291,0.000351,0.320503,1.201751,2.631517,778.89,15.00,highres
12.555842,9794180775,0.645303,0.003437,-9.746423,-0.000105,0.001301,-0.000733,0.320503,1.201751,2.631517,778.89,15.00,highres
12.557730,9794195028,0.642874,0.006074,-9.752642,-0.000029,-0.000224,-0.000533,0.320503,1.201751,2.631517,778.89,15.00,highres
12.573699,9794201231,0.634811,0.000412,-9.751143,0.000360,0.001272,0.000198,0.320503,1.201751,2.631517,778.89,15.00,highres
12.587503,9794213049,0.640681,0.000412,-9.747136,-0.000716,0.000270,-0.000504,0.320503,1.201751,2.631517,778.89,15.00,highres
12.593741,9794223349,0.637024,0.002800,-9.747478,-0.000434,0.000772,-0.000428,0.320503,1.201751,2.631517,778.89,15.00,highres
12.600600,9794236246,0.640843,-0.002444,-9.759308,-0.000508,0.000527,-0.000252,0.320503,1.201751,2.631517,778.89,15.00,highres
12.613870,9794242708,0.641694,0.002527,-9.748405,0.000200,0.001489,0.000365,0.320503,1.201751,2.631517,778.89,15.00,highres
12.626654,9794256047,0.646042,0.004874,-9.759980,0.000102,-0.000325,0.000192,0.320503,1.201751,2.631517,778.89,15.00,highres
12.634458,9794267390,0.638414,0.005607,-9.742399,0.000099,-0.000329,0.000897,0.328558,1.199933,2.628341,778.89,15.00,highres
12.645996,9794273121,0.630117,0.000771,-9.753846,0.000811,-0.000305,-0.000200,0.328558,1.199933,2.628341,778.89,15.00,highres
12.655038,9794286187,0.638356,0.006951,-9.753812,-0.000112,0.000697,0.000183,0.328558,1.199933,2.628341,778.89,15.00,highres
12.658596,9794292875,0.644801,0.005201,-9.754365,0.000200,0.000393,0.000026,0.328558,1.199933,2.628341,778.89,15.00,highres
12.676612,9794303381,0.640013,0.007595,-9.749576,-0.000407,0.001149,-0.000580,0.315855,1.207832,2.634966,778.89,15.00,highres
12.679130,9794309429,0.636566,-0.002034,-9.748905,0.000200,0.000506,0.000774,0.315855,1.207832,2.634966,778.89,15.00,highres
12.694509,9794320785,0.652442,0.000693,-9.750036,-0.000410,0.001301,0.000644,0.315855,1.207832,2.634966,778.89,15.00,highres
12.698715,9794326093,0.649589,-0.001956,-9.744781,0.000209,0.000384,0.000035,0.315855,1.207832,2.634966,778.89,15.00,highres
12.716000,9794343957,0.634340,-0.006327,-9.746298,-0.000331,0.000192,-0.000122,0.315855,1.207832,2.634966,778.89,15.00,highres
12.722713,9794357313,0.650356,0.004434,-9.755564,-0.000049,-0.000115,-0.000733,0.315855,1.207832,2.634966,778.89,15.00,highres
12.735149,9794362816,0.647195,0.001609,-9.748380,0.000811,0.001301,0.000489,0.315855,1.207832,2.634966,778.89,15.00,highres
12.745263,9794373873,0.645998,0.002806,-9.761548,-0.000716,0.000995,0.000183,0.315855,1.207832,2.634966,778.89,15.00,highres
12.754914,9794388653,0.637619,-0.003927,-9.753919,-0.001496,0.000112,-0.000564,0.315855,1.207832,2.634966,778.89,15.00,highres
12.760335,9794394277,0.637619,-0.000161,-9.759070,-0.000821,0.000605,-0.000017,0.315855,1.207832,2.634966,778.89,15.00,highres
12.779292,9794406225,0.642714,-0.003567,-9.754979,-0.000716,0.000920,0.000258,0.316131,1.205674,2.636509,778.88,15.00,highres
12.781226,9794412258,0.641607,-0.009160,-9.743588,-0.000393,0.000367,-0.001217,0.316131,1.205674,2.636509,778.88,15.00,highres
12.793990,9794418762,0.639497,0.002548,-9.741683,-0.000796,-0.000607,-0.000347,0.316131,1.205674,2.636509,778.88,15.00,highres
12.801425,9794429329,0.631041,-0.003853,-9.757585,0.000259,0.001853,0.000060,0.316131,1.205674,2.636509,778.88,15.00,highres
12.814772,9794440886,0.642881,0.002196,-9.743117,0.000577,0.000807,0.000300,0.322719,1.207529,2.626160,778.88,15.00,highres
12.820820,9794454431,0.641644,-0.002519,-9.749784,-0.001484,0.000365,-0.000724,0.322719,1.207529,2.626160,778.88,15.00,highres
12.835852,9794463537,0.641778,-0.014474,-9.753644,-0.000069,-0.000397,0.000048,0.322719,1.207529,2.626160,778.88,15.00,highres
12.845581,9794469785,0.641547,0.000088,-9.754017,0.001728,0.001131,-0.000361,0.322719,1.207529,2.626160,778.88,15.00,highres
12.856940,9794478513,0.648627,-0.001748,-9.749057,-0.001055,0.000916,0.000138,0.322719,1.207529,2.626160,778.88,15.00,highres
12.858135,9794483707,0.646174,0.004542,-9.740660,-0.000410,0.000922,-0.000587,0.322719,1.207529,2.626160,778.88,15.00,highres
12.875084,9794493865,0.650119,-0.003316,-9.752246,-0.000105,0.000690,0.000183,0.322719,1.207529,2.626160,778.88,15.00,highres
12.879413,9794514672,0.649662,-0.001686,-9.753099,0.000047,0.000832,-0.000046,0.322719,1.207529,2.626160,778.88,15.00,highres
12.894597,9794526812,0.641548,0.002199,-9.750185,0.000811,0.000488,0.000697,0.322719,1.207529,2.626160,778.88,15.00,highres
12.898225,9794531243,0.639158,0.005115,-9.745900,0.000178,0.001181,-0.000286,0.322719,1.207529,2.626160,778.88,15.00,highres
12.914773,9794547503,0.631689,-0.008022,-9.751714,0.000672,0.000314,-0.000122,0.319914,1.205167,2.630077,778.88,15.00,highres
12.921664,9794552204,0.641210,0.001609,-9.751971,0.000811,0.000995,-0.001344,0.319914,1.205167,2.630077,778.88,15.00,highres
12.936494,9794563496,0.637007,0.006929,-9.744897,-0.000105,0.000982,-0.000428,0.319914,1.205167,2.630077,778.89,15.00,highres
12.945726,9794573889,0.649460,0.005201,-9.746519,0.000032,0.000289,-0.000628,0.319914,1.205167,2.630077,778.89,15.00,highres
12.956694,9794586859,0.631634,-0.004843,-9.747039,-0.000187,0.000496,-0.000651,0.316847,1.197457,2.639579,778.89,15.00,highres
12.958743,9794593961,0.639668,0.004471,-9.749923,-0.000494,-0.000505,-0.000428,0.316847,1.197457,2.639579,778.89,15.00,highres
12.978372,9794603598,0.629668,-0.002524,-9.765365,-0.000214,0.001329,-0.000289,0.316847,1.197457,2.639579,778.89,15.00,highres
12.988414,9794610843,0.634773,0.003778,-9.748110,-0.000353,0.000811,-0.000854,0.316847,1.197457,2.639579,778.89,15.00,highres
12.994424,9794623828,0.634257,-0.004656,-9.744458,0.000200,0.000761,-0.000675,0.316847,1.197457,2.639579,778.89,15.00,highres
13.000413,9794633598,0.638687,0.006333,-9.748672,0.000811,0.000995,-0.000122,0.316847,1.197457,2.639579,778.89,15.00,highres
13.015551,9794638884,0.625111,0.002342,-9.741467,-0.000391,0.000344,0.000183,0.316847,1.197457,2.639579,778.88,15.00,highres
13.023333,9794657485,0.633936,0.000167,-9.749240,0.000091,-0.001206,-0.000428,0.316847,1.197457,2.639579,778.88,15.00,highres
13.035683,9794661111,0.638353,-0.016156,-9.752243,-0.000722,0.000546,-0.000278,0.316847,1.197457,2.639579,778.88,15.00,highres
13.046378,9794671117,0.640013,0.002806,-9.755564,0.000200,0.000995,0.001405,0.316847,1.197457,2.639579,778.88,15.00,highres
13.056276,9794681902,0.633151,-0.000481,-9.746880,-0.000600,0.000995,-0.000312,0.325261,1.201659,2.628515,778.88,15.00,highres
13.066236,9794691476,0.647224,0.004645,-9.747738,0.000289,0.001301,0.000357,0.325261,1.201659,2.628515,778.88,15.00,highres
13.075613,9794702051,0.631794,-0.011509,-9.765804,0.000811,0.001386,0.000996,0.325261,1.201659,2.628515,778.88,15.00,highres
13.086954,9794713297,0.641226,0.007126,-9.755029,-0.000835,0.000632,-0.001158,0.325261,1.201659,2.628515,778.88,15.00,highres
13.093837,9794723491,0.642407,-0.007967,-9.750774,-0.000105,0.000690,-0.000122,0.329876,1.203460,2.633504,778.88,15.00,highres
13.106053,9794733387,0.634028,0.000412,-9.750775,0.000811,0.000995,0.000794,0.329876,1.203460,2.633504,778.88,15.00,highres
13.114627,9794743677,0.647050,0.001229,-9.744264,0.001117,0.000079,0.000619,0.329876,1.203460,2.633504,778.88,15.00,highres
13.121441,9794755896,0.635886,0.004054,-9.748456,0.000650,0.001783,-0.000122,0.329876,1.203460,2.633504,778.88,15.00,highres
13.135121,9794762415,0.641540,0.005572,-9.743592,-0.000726,0.001103,-0.000625,0.329876,1.203460,2.633504,778.88,15.00,highres
13.144696,9794773322,0.634733,-0.008673,-9.749926,-0.000414,0.000233,-0.000277,0.329876,1.203460,2.633504,778.88,15.00,highres
13.155635,9794783777,0.643282,0.002116,-9.756896,-0.001465,0.000109,-0.000763,0.329876,1.203460,2.633504,778.88,15.00,highres
13.159049,9794797009,0.644019,-0.001867,-9.748633,0.000236,0.001336,0.000759,0.329876,1.203460,2.633504,778.88,15.00,highres
13.178747,9794803960,0.641133,0.004640,-9.747642,-0.000339,0.002171,-0.000149,0.329876,1.203460,2.633504,778.88,15.00,highres
13.185982,9794813879,0.631492,-0.002827,-9.751108,0.000331,0.000731,-0.000167,0.329876,1.203460,2.633504,778.88,15.00,highres
13.194536,9794824764,0.642407,0.004004,-9.737607,-0.000716,0.001606,-0.001039,0.325448,1.202316,2.627869,778.88,15.00,highres
13.199282,9794835346,0.640013,0.007595,-9.751971,-0.001383,-0.000227,-0.000307,0.325448,1.202316,2.627869,778.88,15.00,highres
13.213795,9794844286,0.635241,0.001003,-9.756169,-0.000582,0.000756,-0.000189,0.325448,1.202316,2.627869,778.88,15.00,highres
13.226024,9794854145,0.643248,-0.006888,-9.756641,0.000141,-0.000469,0.001159,0.325448,1.202316,2.627869,778.88,15.00,highres
13.235813,9794867193,0.644801,0.008162,-9.749578,0.000506,0.000972,-0.000004,0.330409,1.205429,2.638268,778.88,15.00,highres
13.247156,9794872975,0.642369,0.009526,-9.742782,-0.000312,-0.000325,-0.000319,0.330409,1.205429,2.638268,778.88,15.00,highres
13.255057,9794883723,0.647041,0.007112,-9.749017,-0.001021,0.000697,0.000347,0.330409,1.205429,2.638268,778.87,15.00,highres
13.266967,9794894804,0.635785,0.012943,-9.750367,-0.000248,0.000404,-0.000571,0.330409,1.205429,2.638268,778.87,15.00,highres
13.279118,9794903862,0.643335,-0.001323,-9.748380,-0.000177,-0.000550,0.000399,0.330409,1.205429,2.638268,778.87,15.00,highres
13.281096,9794914503,0.637744,0.005721,-9.760351,-0.000682,0.000215,-0.000292,0.330409,1.205429,2.638268,778.87,15.00,highres
13.281096,9794918812,0.654770,0.016385,-9.754503,-0.000028,0.001033,-0.000638,0.330409,1.205429,2.638268,778.87,15.00,highres
13.281096,9794933826,0.639476,-0.005449,-9.764602,0.000475,-0.000501,-0.000795,0.330409,1.205429,2.638268,778.87,15.00,highres
13.281096,9794944023,0.645998,-0.004376,-9.747183,-0.000105,0.000384,-0.000428,0.330409,1.205429,2.638268,778.87,15.00,highres
13.321673,9794954698,0.644549,0.004129,-9.758869,0.000097,0.001028,0.000150,0.330409,1.205429,2.638268,778.87,15.00,highres
13.334953,9794964396,0.647195,-0.006770,-9.750774,0.000506,0.000079,-0.000428,0.327105,1.200561,2.635800,778.88,15.00,highres
13.346411,9794976825,0.645998,-0.001982,-9.753168,0.000029,0.000823,-0.000256,0.327105,1.200561,2.635800,778.88,15.00,highres
13.355614,9794987748,0.642363,0.004563,-9.743975,0.000102,0.000788,-0.000428,0.327105,1.200561,2.635800,778.88,15.00,highres
13.359187,9794991453,0.636789,0.012477,-9.749068,-0.000105,0.000172,-0.000229,0.327105,1.200561,2.635800,778.88,15.00,highres
13.374192,9795002015,0.639185,-0.002440,-9.746917,0.000042,0.000848,-0.000733,0.318060,1.206409,2.630932,778.88,15.00,highres
13.387481,9795012210,0.640013,0.000412,-9.751971,-0.000410,-0.000227,-0.000428,0.318060,1.206409,2.630932,778.88,15.00,highres
13.394576,9795019004,0.649967,-0.007336,-9.745167,0.000200,0.000966,0.000347,0.318060,1.206409,2.630932,778.88,15.00,highres
13.398458,9795031045,0.627307,0.003059,-9.747666,-0.000410,0.001814,-0.000428,0.318060,1.206409,2.630932,778.88,15.00,highres
13.413919,9795036074,0.644489,-0.001227,-9.746695,-0.000004,0.001809,-0.000326,0.318060,1.206409,2.630932,778.87,15.00,highres
13.421236,9795049431,0.643632,-0.003094,-9.754004,-0.000146,0.000954,-0.000163,0.318060,1.206409,2.630932,778.87,15.00,highres
13.434894,9795061207,0.637619,0.008792,-9.745986,-0.000310,0.002317,-0.000017,0.318060,1.206409,2.630932,778.87,15.00,highres
13.446199,9795072163,0.639216,0.004668,-9.755563,-0.000550,0.000698,-0.001187,0.318060,1.206409,2.630932,778.87,15.00,highres
13.456273,9795084480,0.644767,0.008792,-9.756725,0.000489,0.000096,-0.001807,0.318060,1.206409,2.630932,778.87,15.00,highres
13.457424,9795089737,0.644106,-0.005418,-9.759153,0.000821,0.000069,0.000025,0.318060,1.206409,2.630932,778.87,15.00,highres
13.474448,9795102663,0.638816,-0.001982,-9.751971,-0.000498,0.000690,-0.000428,0.318060,1.206409,2.630932,778.87,15.00,highres
13.479458,9795116662,0.634406,0.000113,-9.755061,0.000265,0.000384,-0.000698,0.326699,1.199127,2.633585,778.87,15.00,highres
13.493440,9795127246,0.635421,-0.004133,-9.747182,-0.000108,0.001301,-0.000365,0.326699,1.199127,2.633585,778.88,15.00,highres
13.498227,9795137557,0.641841,-0.003937,-9.750080,-0.001445,-0.000481,0.000675,0.326699,1.199127,2.633585,778.88,15.00,highres
13.517079,9795144238,0.642407,0.001908,-9.745990,0.000575,0.000578,-0.000372,0.321660,1.201388,2.634089,778.88,15.00,highres
13.521309,9795149733,0.642664,0.004216,-9.749879,-0.000118,0.001194,-0.000029,0.321660,1.201388,2.634089,778.88,15.00,highres
13.534728,9795159354,0.645006,-0.003919,-9.751810,-0.000431,0.001120,0.000346,0.321660,1.201388,2.634089,778.88,15.00,highres
13.545576,9795164062,0.642512,-0.000078,-9.749366,-0.001238,-0.000440,-0.001759,0.321660,1.201388,2.634089,778.88,15.00,highres
13.552366,9795179405,0.633661,0.005932,-9.748045,-0.000534,-0.000587,-0.000878,0.321660,1.201388,2.634089,778.88,15.00,highres
13.561516,9795184045,0.635410,0.012621,-9.765997,-0.000303,-0.000163,-0.000952,0.321660,1.201388,2.634089,778.88,15.00,highres
13.573641,9795196569,0.635279,-0.012024,-9.753504,0.000396,0.001023,-0.000033,0.321660,1.201388,2.634089,778.88,15.00,highres
13.580062,9795209569,0.646543,-0.005744,-9.745059,-0.000921,0.000282,-0.000454,0.321660,1.201388,2.634089,778.88,15.00,highres
13.596688,9795219862,0.636476,-0.010353,-9.755700,-0.000745,-0.001278,-0.000114,0.321660,1.201388,2.634089,778.88,15.00,highres
13.598739,9795231587,0.652531,0.001899,-9.762249,0.000013,0.000880,0.000960,0.321660,1.201388,2.634089,778.88,15.00,highres
13.614055,9795243156,0.634276,0.008218,-9.756383,0.000014,-0.000784,-0.000143,0.319950,1.203972,2.623327,778.88,15.00,highres
13.621733,9795249933,0.640739,0.004450,-9.757338,-0.000971,-0.001189,-0.001010,0.319950,1.203972,2.623327,778.88,15.00,highres
13.634278,9795260149,0.645293,0.002172,-9.742591,-0.000089,0.000403,0.000918,0.319950,1.203972,2.623327,778.88,15.00,highres
13.647081,9795267529,0.642465,0.010897,-9.759290,-0.000320,-0.000223,0.000072,0.319950,1.203972,2.623327,778.88,15.00,highres
13.655320,9795277037,0.628390,0.011657,-9.745879,0.000506,0.001915,-0.000754,0.326848,1.211701,2.630767,778.88,15.00,highres
13.658976,9795282208,0.652829,0.008211,-9.749569,-0.000715,0.001058,0.000408,0.326848,1.211701,2.630767,778.88,15.00,highres
13.674249,9795295080,0.632917,0.002782,-9.758079,0.000506,0.000083,0.000671,0.326848,1.211701,2.630767,778.88,15.00,highres
13.687555,9795304343,0.641206,-0.004835,-9.743876,-0.000962,0.000309,0.000162,0.326848,1.211701,2.630767,778.88,15.00,highres
13.695464,9795310387,0.635279,0.005208,-9.750912,0.000464,0.000526,0.000592,0.326848,1.211701,2.630767,778.88,15.00,highres
13.698858,9795319221,0.655500,0.003965,-9.753482,-0.000345,0.000622,0.000127,0.326848,1.211701,2.630767,778.88,15.00,highres
13.715575,9795344478,0.633774,-0.009211,-9.759929,-0.000197,0.000217,0.000269,0.326848,1.211701,2.630767,778.88,15.00,highres
13.722243,9795354574,0.649487,-0.005565,-9.727933,-0.000721,0.000860,-0.000432,0.326848,1.211701,2.630767,778.88,15.00,highres
13.735531,9795359888,0.633924,0.010990,-9.750460,0.000237,0.000217,0.001213,0.326848,1.211701,2.630767,778.88,15.00,highres
13.745200,9795374540,0.638325,-0.001657,-9.734031,-0.000217,-0.000556,0.000494,0.326848,1.211701,2.630767,778.88,15.00,highres
13.760337,9795388245,0.642828,0.005548,-9.752808,-0.000299,0.001053,-0.001726,0.325502,1.200215,2.630331,778.88,15.00,highres
13.767052,9795397352,0.631733,-0.003600,-9.736448,-0.000715,-0.000761,-0.001121,0.325502,1.200215,2.630331,778.88,15.00,highres
13.773669,9795404436,0.640202,-0.006294,-9.752576,-0.000625,0.000783,0.000037,0.325502,1.200215,2.630331,778.88,15.00,highres
13.786791,9795410715,0.643703,-0.003732,-9.747927,-0.000122,0.000532,-0.000610,0.325502,1.200215,2.630331,778.88,15.00,highres
13.794091,9795424412,0.638274,-0.002126,-9.749266,0.000027,0.000432,0.000381,0.321646,1.201411,2.632098,778.88,15.00,highres
13.797538,9795433257,0.641077,-0.001512,-9.751272,0.000262,0.000510,-0.000632,0.321646,1.201411,2.632098,778.88,15.00,highres
13.816560,9795442483,0.635539,0.006535,-9.746886,-0.001920,0.000710,-0.000288,0.321646,1.201411,2.632098,778.89,15.00,highres
13.821515,9795455250,0.638231,-0.012895,-9.750699,0.000947,0.000693,0.000807,0.321646,1.201411,2.632098,778.89,15.00,highres
13.834768,9795464214,0.647859,0.010605,-9.742657,-0.000410,0.000310,-0.000335,0.321646,1.201411,2.632098,778.89,15.00,highres
13.845237,9795476731,0.642461,0.004031,-9.757722,-0.001212,0.000388,-0.000029,0.321646,1.201411,2.632098,778.89,15.00,highres
13.857081,9795482357,0.641923,0.017179,-9.757636,-0.000499,0.001130,-0.000537,0.321646,1.201411,2.632098,778.89,15.00,highres
13.859529,9795494406,0.641722,0.000702,-9.753871,0.000201,0.000693,0.000162,0.321646,1.201411,2.632098,778.89,15.00,highres
13.874467,9795504870,0.640827,-0.005682,-9.753861,-0.000410,0.001609,0.000318,0.321646,1.201411,2.632098,778.89,15.00,highres
13.886697,9795517049,0.644021,0.003456,-9.750464,-0.000401,0.000378,-0.000921,0.321646,1.201411,2.632098,778.89,15.00,highres
13.893594,9795523050,0.639294,0.008609,-9.760372,-0.000410,0.001915,0.000773,0.321646,1.201411,2.632098,778.89,15.00,highres
13.898953,9795535432,0.639647,-0.000525,-9.750273,-0.000665,-0.000784,-0.000832,0.325086,1.203519,2.632444,778.89,15.00,highres
13.914165,9795544665,0.652945,-0.001520,-9.752978,0.000399,-0.000323,-0.000647,0.325086,1.203519,2.632444,778.89,15.00,highres
13.926793,9795555945,0.642414,0.005496,-9.756228,0.000885,0.000020,-0.000449,0.325086,1.203519,2.632444,778.89,15.00,highres
13.934638,9795567939,0.647489,-0.003410,-9.751992,0.000842,0.000219,-0.000082,0.325292,1.212064,2.626273,778.89,15.00,highres
13.944482,9795573220,0.646511,0.004571,-9.757916,-0.000293,-0.000717,-0.000495,0.325292,1.212064,2.626273,778.89,15.00,highres
13.956718,9795584475,0.650415,-0.004449,-9.751027,-0.000340,0.000200,-0.000310,0.325292,1.212064,2.626273,778.89,15.00,highres
13.958624,9795589879,0.646554,0.001923,-9.754614,0.000448,0.000635,-0.001002,0.325292,1.212064,2.626273,778.89,15.00,highres
13.973553,9795602851,0.629891,0.003480,-9.757630,-0.000548,0.000388,0.000856,0.325292,1.212064,2.626273,778.90,15.00,highres
13.987112,9795606832,0.638763,0.002162,-9.760706,-0.000593,-0.000926,-0.001365,0.325292,1.212064,2.626273,778.90,15.00,highres
13.995151,9795624380,0.654432,0.000911,-9.748950,-0.000687,-0.000529,-0.000616,0.325292,1.212064,2.626273,778.90,15.00,highres
14.001789,9795634653,0.640507,-0.002229,-9.756961,0.000443,-0.000223,-0.000449,0.325292,1.212064,2.626273,778.90,15.00,highres
14.014087,9795646801,0.637228,0.003204,-9.758429,0.000701,0.000804,0.000273,0.325292,1.212064,2.626273,778.90,15.00,highres
14.020728,9795657374,0.636367,0.000420,-9.750913,0.000037,-0.000670,-0.000165,0.325292,1.212064,2.626273,778.90,15.00,highres
14.035288,9795662944,0.630496,-0.002376,-9.747714,-0.000715,0.001304,0.000162,0.325292,1.212064,2.626273,778.90,15.00,highres
14.048107,9795675162,0.646053,0.002814,-9.753306,0.000084,0.000011,-0.000780,0.322745,1.205428,2.635165,778.90,15.00,highres
14.055503,9795679632,0.646095,-0.003707,-9.751574,0.000374,0.001172,-0.001511,0.322745,1.205428,2.635165,778.89,15.00,highres
14.066591,9795695004,0.641115,-0.000193,-9.754475,0.000052,0.000678,-0.000151,0.322745,1.205428,2.635165,778.89,15.00,highres
14.076144,9795704561,0.647705,-0.003142,-9.749260,0.000220,0.001126,0.000073,0.326141,1.204764,2.640198,778.89,15.00,highres
14.088064,9795717023,0.648447,0.007199,-9.752098,-0.000613,0.001408,0.000468,0.326141,1.204764,2.640198,778.89,15.00,highres
14.093998,9795722996,0.637602,-0.012167,-9.744963,0.000358,0.000675,-0.000449,0.326141,1.204764,2.640198,778.89,15.00,highres
14.099924,9795732723,0.636476,0.006897,-9.750912,0.000684,0.000814,-0.000633,0.326141,1.204764,2.640198,778.89,15.00,highres
14.115143,9795742507,0.648041,-0.003161,-9.755306,-0.000230,0.002025,0.001008,0.326141,1.204764,2.640198,778.89,15.00,highres
14.120336,9795752392,0.636476,0.006405,-9.750914,-0.000715,0.000082,-0.001060,0.326141,1.204764,2.640198,778.89,15.00,highres
14.135766,9795763447,0.640472,-0.006766,-9.755703,0.000404,0.000490,0.000366,0.326141,1.204764,2.640198,778.89,15.00,highres
14.145403,9795774894,0.633462,-0.008846,-9.751534,0.000599,0.001133,0.000666,0.326141,1.204764,2.640198,778.89,15.00,highres
14.157450,9795785035,0.632885,0.000221,-9.746650,-0.000410,0.000693,-0.000754,0.326141,1.204764,2.640198,778.89,15.00,highres
14.164962,9795789927,0.636015,0.006913,-9.743315,0.000506,0.001609,-0.001060,0.326141,1.204764,2.640198,778.89,15.00,highres
14.175426,9795794730,0.640758,0.005899,-9.744237,0.000812,0.001401,-0.001268,0.323755,1.207624,2.629807,778.89,15.00,highres
14.186829,9795809874,0.639724,0.006073,-9.747820,-0.001021,0.000388,0.000162,0.323755,1.207624,2.629807,778.89,15.00,highres
14.194242,9795818177,0.645244,0.007533,-9.754397,-0.000921,0.000482,0.000056,0.323755,1.207624,2.629807,778.89,15.00,highres
14.204974,9795834894,0.634082,0.005208,-9.752110,0.000493,0.001791,0.000454,0.323755,1.207624,2.629807,778.89,15.00,highres
14.214710,9795848501,0.647750,-0.004368,-9.754307,-0.000155,0.000665,0.000901,0.321836,1.191477,2.629295,778.89,15.00,highres
14.220552,9795857987,0.634783,0.000128,-9.750213,-0.000537,-0.000633,-0.000017,0.321836,1.191477,2.629295,778.89,15.00,highres
14.235220,9795867850,0.656838,0.000420,-9.740166,0.000506,0.000998,-0.000344,0.321836,1.191477,2.629295,778.89,15.00,highres
14.247110,9795875992,0.645618,0.009345,-9.745592,0.000506,-0.000529,-0.000449,0.321836,1.191477,2.629295,778.89,15.00,highres
14.255635,9795879994,0.660564,-0.005235,-9.764606,-0.000428,0.002160,0.000581,0.321836,1.191477,2.629295,778.89,15.00,highres
14.257463,9795890558,0.645590,0.011054,-9.752845,0.000506,-0.000529,-0.001365,0.321836,1.191477,2.629295,778.89,15.00,highres
14.274396,9795899809,0.631319,-0.006371,-9.747331,-0.000024,0.001915,0.000050,0.321836,1.191477,2.629295,778.89,15.00,highres
14.278342,9795905290,0.637582,0.008239,-9.746807,-0.001048,0.000666,-0.000588,0.321836,1.191477,2.629295,778.89,15.00,highres
14.291096,9795915072,0.650053,-0.014038,-9.745622,-0.001100,0.000521,0.000375,0.321836,1.191477,2.629295,778.88,15.00,highres
14.291096,9795927065,0.648447,0.015982,-9.749716,0.000624,0.001068,-0.000310,0.321836,1.191477,2.629295,778.88,15.00,highres
14.291096,9795938741,0.634932,-0.001563,-9.742927,0.000435,0.002032,0.000351,0.327706,1.204041,2.627852,778.88,15.00,highres
14.291096,9795950482,0.651038,0.000464,-9.756448,0.000506,0.000388,-0.000449,0.327706,1.204041,2.627852,778.88,15.00,highres
14.334364,9795961421,0.632823,0.004455,-9.744928,-0.000603,0.001164,0.000773,0.327706,1.204041,2.627852,778.88,15.00,highres
14.344784,9795965363,0.645386,-0.002826,-9.745791,-0.000894,-0.000134,0.000251,0.327706,1.204041,2.627852,778.88,15.00,highres
14.356396,9795970511,0.637238,-0.007527,-9.747649,0.000314,0.000361,-0.000588,0.316516,1.206313,2.631602,778.88,15.00,highres
14.359945,9795980253,0.650188,-0.006110,-9.751783,-0.000533,0.000142,0.000345,0.316516,1.206313,2.631602,778.88,15.00,highres
14.375405,9795990237,0.637023,0.013041,-9.752133,0.000812,0.000693,-0.001060,0.316516,1.206313,2.631602,778.89,15.00,highres
14.380445,9795995271,0.638730,-0.011127,-9.763095,-0.000416,0.001505,-0.000956,0.316516,1.206313,2.631602,778.89,15.00,highres
14.395672,9796005251,0.649644,0.008799,-9.746124,0.000651,0.001179,0.000252,0.316516,1.206313,2.631602,778.89,15.00,highres
14.405560,9796032427,0.644944,-0.008975,-9.753307,-0.000030,0.001103,-0.000070,0.316516,1.206313,2.631602,778.89,15.00,highres
14.415013,9796048034,0.645879,-0.002387,-9.759857,0.000952,0.001279,-0.000028,0.316516,1.206313,2.631602,778.89,15.00,highres
14.420136,9796053212,0.626192,-0.015631,-9.736526,-0.000325,0.000212,-0.000098,0.316516,1.206313,2.631602,778.89,15.00,highres
14.434463,9796063048,0.651027,0.009370,-9.746943,0.001318,0.001609,0.000057,0.316516,1.206313,2.631602,778.89,15.00,highres
14.446992,9796072968,0.626404,-0.015181,-9.747032,-0.000410,0.000914,0.000727,0.316516,1.206313,2.631602,778.89,15.00,highres
14.455295,9796085344,0.654494,0.003078,-9.747057,-0.000010,0.000282,-0.000049,0.319356,1.205378,2.636563,778.89,15.00,highres
14.458899,9796090106,0.632923,0.001617,-9.752292,-0.000715,-0.000223,-0.000754,0.319356,1.205378,2.636563,778.89,15.00,highres
14.476092,9796103253,0.652038,0.001617,-9.750913,0.001227,0.000803,-0.000889,0.319356,1.205378,2.636563,778.89,15.00,highres
14.479683,9796116031,0.636186,0.002890,-9.757226,0.000210,-0.000519,-0.000217,0.319356,1.205378,2.636563,778.89,15.00,highres
14.493973,9796126925,0.650841,-0.012140,-9.735066,0.000186,0.000615,0.000375,0.328134,1.206093,2.638698,778.89,15.00,highres
14.498174,9796133240,0.633050,-0.001487,-9.746504,-0.000646,-0.000765,-0.000615,0.328134,1.206093,2.638698,778.89,15.00,highres
14.515448,9796142659,0.649062,0.002681,-9.752175,-0.000736,0.001174,-0.000645,0.328134,1.206093,2.638698,778.89,15.00,highres
14.526999,9796156086,0.631713,0.001935,-9.750595,0.000020,0.000082,-0.000997,0.328134,1.206093,2.638698,778.89,15.00,highres
14.533753,9796165131,0.653024,0.005280,-9.758726,0.000065,0.000762,-0.000515,0.328134,1.206093,2.638698,778.90,15.00,highres
14.544737,9796172369,0.645184,-0.008174,-9.769263,0.000679,0.000792,-0.001112,0.328134,1.206093,2.638698,778.90,15.00,highres
14.555891,9796183021,0.629334,-0.003674,-9.751235,0.000314,-0.000642,-0.000146,0.328134,1.206093,2.638698,778.90,15.00,highres
14.559335,9796195528,0.642601,-0.001652,-9.760161,-0.000716,-0.000206,0.000465,0.328134,1.206093,2.638698,778.90,15.00,highres
14.575563,9796205876,0.644860,-0.003166,-9.745321,-0.000410,-0.000057,0.000312,0.328134,1.206093,2.638698,778.90,15.00,highres
14.579592,9796210214,0.639094,-0.001464,-9.758961,-0.000716,-0.000729,0.000334,0.328134,1.206093,2.638698,778.90,15.00,highres
14.596981,9796221534,0.648043,-0.000336,-9.757701,0.000367,0.002152,-0.000757,0.328134,1.206093,2.638698,778.90,15.00,highres
14.605373,9796233361,0.650026,0.015168,-9.745257,0.000506,-0.000014,-0.000049,0.327230,1.203157,2.632846,778.90,15.00,highres
14.614006,9796241091,0.646472,0.003234,-9.750145,-0.001212,0.001197,0.000341,0.327230,1.203157,2.632846,778.90,15.00,highres
14.624494,9796256999,0.645390,-0.007333,-9.754414,0.000235,0.001015,0.000171,0.327230,1.203157,2.632846,778.90,15.00,highres
14.634436,9796261605,0.643631,-0.002797,-9.752503,-0.000716,0.000710,0.000771,0.331297,1.202009,2.628013,778.90,15.00,highres
14.646221,9796277948,0.639582,-0.005832,-9.747079,-0.000087,0.001177,-0.000757,0.331297,1.202009,2.628013,778.90,15.00,highres
14.657369,9796282361,0.633058,0.006441,-9.752366,0.000164,0.000710,-0.000757,0.331297,1.202009,2.628013,778.90,15.00,highres
14.663333,9796295481,0.650845,0.010001,-9.752502,-0.000166,0.000282,-0.000879,0.331297,1.202009,2.628013,778.90,15.00,highres
14.679380,9796309918,0.630057,0.000721,-9.755645,-0.000410,0.001586,-0.000492,0.331297,1.202009,2.628013,778.90,15.00,highres
14.687578,9796315392,0.652088,0.006426,-9.754307,-0.000393,0.000065,-0.000307,0.331297,1.202009,2.628013,778.90,15.00,highres
14.694365,9796326305,0.636146,0.005566,-9.745480,-0.001407,-0.000239,0.000642,0.331297,1.202009,2.628013,778.89,15.00,highres
14.712165,9796335837,0.644490,-0.006669,-9.748910,0.000348,-0.000070,0.000738,0.331297,1.202009,2.628013,778.89,15.00,highres
14.720108,9796346054,0.630100,0.005213,-9.753306,-0.000849,0.000232,0.000198,0.331297,1.202009,2.628013,778.89,15.00,highres
14.728242,9796350655,0.641520,0.001056,-9.748345,-0.000511,0.000503,0.000160,0.331297,1.202009,2.628013,778.89,15.00,highres
14.735731,9796363660,0.644860,-0.000772,-9.757292,0.001443,0.000404,-0.000947,0.320857,1.197411,2.628977,778.89,15.00,highres
14.745722,9796374706,0.635283,-0.007954,-9.742928,0.001070,0.001181,0.000113,0.320857,1.197411,2.628977,778.89,15.00,highres
14.756236,9796385791,0.637677,0.018669,-9.755807,-0.000670,-0.000679,0.000281,0.320857,1.197411,2.628977,778.89,15.00,highres
14.764818,9796397900,0.647915,-0.003166,-9.746518,0.000200,0.001321,0.000006,0.320857,1.197411,2.628977,778.89,15.00,highres
14.779530,9796403135,0.642669,0.008134,-9.747979,-0.000410,0.000404,0.000160,0.321806,1.198745,2.622002,778.89,15.00,highres
14.792883,9796410627,0.636642,0.007931,-9.754898,0.000149,-0.000631,0.000703,0.321806,1.198745,2.622002,778.89,15.00,highres
14.794828,9796428316,0.629283,-0.001092,-9.752455,-0.000604,0.000604,0.000192,0.321806,1.198745,2.622002,778.89,15.00,highres
14.811307,9796438231,0.657377,-0.000571,-9.754263,-0.000410,0.001015,0.000465,0.321806,1.198745,2.622002,778.89,15.00,highres
14.821472,9796442970,0.641053,0.006858,-9.746865,-0.001175,0.001469,0.000006,0.321806,1.198745,2.622002,778.89,15.00,highres
14.829262,9796448837,0.650941,0.013487,-9.736243,-0.001021,-0.001123,0.000465,0.321806,1.198745,2.622002,778.89,15.00,highres
14.835155,9796473002,0.634428,0.006750,-9.750451,0.000366,0.001321,-0.000757,0.321806,1.198745,2.622002,778.89,15.00,highres
14.851525,9796480517,0.630495,-0.009151,-9.742928,0.000354,0.001015,-0.000299,0.321806,1.198745,2.622002,778.90,15.00,highres
14.855887,9796491360,0.659548,0.004824,-9.750960,0.000159,0.001145,-0.000058,0.321806,1.198745,2.622002,778.90,15.00,highres
14.863084,9796496115,0.635340,-0.008532,-9.741575,-0.000405,0.000102,-0.000249,0.321806,1.198745,2.622002,778.90,15.00,highres
14.879191,9796501117,0.635749,0.011258,-9.746538,-0.001938,0.001015,0.000160,0.321915,1.204951,2.630989,778.90,15.00,highres
14.888273,9796518111,0.645570,0.013031,-9.753139,-0.000983,0.000748,0.000026,0.321915,1.204951,2.630989,778.90,15.00,highres
14.895043,9796523571,0.634602,-0.004298,-9.754150,-0.000229,0.001686,0.000219,0.321915,1.204951,2.630989,778.90,15.00,highres
14.911240,9796540166,0.640352,0.007795,-9.747080,0.000011,0.000695,0.000581,0.321915,1.204951,2.630989,778.90,15.00,highres
14.920109,9796546110,0.646099,-0.000099,-9.763928,0.000978,0.001683,-0.000867,0.325404,1.206411,2.632417,778.90,15.00,highres
14.932417,9796558440,0.640072,0.011198,-9.746519,0.000506,0.001015,0.000465,0.325404,1.206411,2.632417,778.90,15.00,highres
14.935887,9796574107,0.631692,0.000931,-9.756889,-0.000541,0.000665,-0.000407,0.325404,1.206411,2.632417,778.90,15.00,highres
14.952676,9796578658,0.641720,0.011159,-9.752503,0.000211,-0.000407,-0.000556,0.325404,1.206411,2.632417,778.90,15.00,highres
14.956307,9796586137,0.639740,-0.007905,-9.751127,0.000551,0.000229,0.000595,0.325404,1.206411,2.632417,778.90,15.00,highres
14.962926,9796603025,0.665517,-0.002419,-9.749649,-0.000332,0.000021,0.000389,0.325404,1.206411,2.632417,778.90,15.00,highres
14.981069,9796608687,0.652199,-0.010686,-9.751593,0.000506,-0.000067,0.000185,0.325404,1.206411,2.632417,778.90,15.00,highres
14.992256,9796620878,0.635592,0.006505,-9.747702,0.000069,0.001124,0.000072,0.325404,1.206411,2.632417,778.90,15.00,highres
14.994130,9796632843,0.633353,0.005136,-9.762196,-0.001948,0.000459,-0.000942,0.325404,1.206411,2.632417,778.90,15.00,highres
15.012489,9796640515,0.635057,-0.007728,-9.760251,-0.000889,0.000347,-0.000572,0.325404,1.206411,2.632417,778.90,15.00,highres
15.021184,9796645698,0.643663,-0.004363,-9.735745,0.001566,-0.001466,-0.001062,0.321730,1.200878,2.637086,778.90,15.00,highres
15.029705,9796656382,0.632397,0.023046,-9.754652,0.000674,0.002268,0.000771,0.321730,1.200878,2.637086,778.90,15.00,highres
15.034944,9796670552,0.655863,0.015626,-9.740173,-0.000195,0.000623,-0.000538,0.321730,1.200878,2.637086,778.90,15.00,highres
15.054327,9796683749,0.619767,0.005789,-9.755488,-0.001654,0.001975,0.000182,0.321730,1.200878,2.637086,778.90,15.00,highres
15.055765,9796689051,0.626442,0.002084,-9.751215,0.000508,0.001991,0.000098,0.323698,1.204395,2.625867,778.90,15.00,highres
15.072515,9796699896,0.648661,-0.005447,-9.748475,-0.000410,-0.000751,-0.000451,0.323698,1.204395,2.625867,778.90,15.00,highres
15.079941,9796710548,0.631730,-0.001130,-9.756774,0.000179,-0.000348,-0.000004,0.323698,1.204395,2.625867,778.90,15.00,highres
15.087716,9796721691,0.637662,0.000425,-9.752114,-0.000006,0.000094,-0.000146,0.323698,1.204395,2.625867,778.90,15.00,highres
15.095457,9796726249,0.638332,0.000537,-9.740307,0.000200,-0.001792,-0.000313,0.323698,1.204395,2.625867,778.90,15.00,highres
15.112624,9796738929,0.635001,-0.000632,-9.756728,-0.000410,0.001626,0.000465,0.323698,1.204395,2.625867,778.90,15.00,highres
15.122990,9796748802,0.650232,-0.001960,-9.760892,0.000994,-0.000084,-0.000205,0.323698,1.204395,2.625867,778.90,15.00,highres
15.130481,9796758904,0.643693,-0.000772,-9.753671,-0.000410,0.000832,-0.000941,0.323698,1.204395,2.625867,778.90,15.00,highres
15.135284,9796766132,0.640104,0.002269,-9.757938,-0.000410,0.000099,-0.000407,0.323698,1.204395,2.625867,778.90,15.00,highres
15.145568,9796771337,0.641118,0.003715,-9.755121,0.000030,0.000845,-0.000316,0.323698,1.204395,2.625867,778.90,15.00,highres
15.159498,9796786485,0.632941,0.004016,-9.755991,0.000304,-0.000310,0.001278,0.323723,1.203564,2.635558,778.90,15.00,highres
15.163712,9796793253,0.638874,0.004016,-9.756094,0.000200,0.001405,0.000639,0.323723,1.203564,2.635558,778.90,15.00,highres
15.178718,9796803265,0.641257,-0.006792,-9.754142,-0.000189,0.000878,-0.000451,0.323723,1.203564,2.635558,778.90,15.00,highres
15.187983,9796816228,0.647254,-0.003166,-9.753700,0.000811,0.001314,-0.001062,0.323723,1.203564,2.635558,778.90,15.00,highres
15.202537,9796829127,0.642993,0.001622,-9.751785,0.000506,0.002006,-0.000146,0.327221,1.198187,2.627795,778.90,15.00,highres
15.211586,9796838661,0.648451,0.006410,-9.747714,-0.000282,-0.000383,-0.000146,0.327221,1.198187,2.627795,778.90,15.00,highres
15.220721,9796849411,0.635362,0.008804,-9.750748,-0.000410,0.000862,-0.000604,0.327221,1.198187,2.627795,778.90,15.00,highres
15.231969,9796863207,0.648435,0.001630,-9.746502,0.000047,-0.000204,-0.000297,0.327221,1.198187,2.627795,778.90,15.00,highres
15.240115,9796868774,0.645286,0.005777,-9.756933,0.000297,0.000747,0.000808,0.327221,1.198187,2.627795,778.90,15.00,highres
15.245549,9796873133,0.640248,-0.000596,-9.765829,-0.000643,0.001655,-0.001135,0.327221,1.198187,2.627795,778.90,15.00,highres
15.255002,9796888590,0.647987,-0.005590,-9.751890,0.000339,-0.000068,-0.001396,0.327221,1.198187,2.627795,778.90,15.00,highres
15.262910,9796898796,0.636506,-0.005482,-9.756627,-0.000072,0.000305,-0.000551,0.327221,1.198187,2.627795,778.90,15.00,highres
15.281366,9796904585,0.630495,-0.012120,-9.753388,0.000073,-0.000334,-0.000451,0.327221,1.198187,2.627795,778.90,15.00,highres
15.286948,9796914414,0.639826,0.007607,-9.758273,0.000506,0.000099,-0.000451,0.327221,1.198187,2.627795,778.90,15.00,highres
15.299001,9796927492,0.640891,0.005722,-9.766491,0.000990,0.000299,0.000234,0.325128,1.196716,2.627394,778.90,15.00,highres
15.299001,9796939013,0.640072,-0.006757,-9.747715,-0.000429,0.000442,0.000141,0.325128,1.196716,2.627394,778.90,15.00,highres
15.299001,9796949041,0.635039,0.004334,-9.747153,-0.000180,0.000520,0.000580,0.325128,1.196716,2.627394,778.90,15.00,highres
15.299001,9796958506,0.635283,0.001622,-9.744124,-0.000396,0.001189,-0.000000,0.325128,1.196716,2.627394,778.90,15.00,highres
15.339596,9796971576,0.637356,0.001009,-9.755323,0.000085,0.000247,0.001150,0.329047,1.196728,2.625023,778.90,15.00,highres
15.344616,9796984284,0.638437,0.004282,-9.751859,-0.001083,0.000123,0.000160,0.329047,1.196728,2.625023,778.90,15.00,highres
15.362009,9796990722,0.648856,-0.005577,-9.750117,0.000242,0.000560,0.000237,0.329047,1.196728,2.625023,778.90,15.00,highres
15.364003,9797000969,0.643371,-0.001808,-9.743380,-0.000214,0.000848,0.000327,0.329047,1.196728,2.625023,778.90,15.00,highres
15.379896,9797009782,0.633224,-0.004312,-9.753032,-0.000144,0.000582,0.000859,0.329047,1.196728,2.625023,778.90,15.00,highres
15.392562,9797018946,0.644860,0.000425,-9.756095,0.000506,0.000710,-0.000146,0.329047,1.196728,2.625023,778.90,15.00,highres
15.396072,9797031170,0.642162,-0.002391,-9.753937,-0.000410,0.000650,-0.000283,0.329047,1.196728,2.625023,778.90,15.00,highres
15.412603,9797041141,0.633463,0.001048,-9.761979,-0.000191,0.000665,0.000551,0.329047,1.196728,2.625023,778.90,15.00,highres
15.421556,9797049037,0.638407,-0.001188,-9.752555,-0.000289,-0.000022,0.000650,0.329047,1.196728,2.625023,778.90,15.00,highres
15.432275,9797058944,0.637570,0.008717,-9.756747,0.000200,0.000389,-0.000146,0.329047,1.196728,2.625023,778.90,15.00,highres
15.434058,9797063806,0.632889,0.004016,-9.758490,-0.000410,0.000404,-0.000146,0.323472,1.205201,2.630881,778.90,15.00,highres
15.444839,9797073448,0.641710,-0.008836,-9.757291,-0.000210,0.000710,-0.000857,0.323472,1.205201,2.630881,778.90,15.00,highres
15.454652,9797084220,0.637349,0.000425,-9.744544,-0.000531,0.000766,-0.000210,0.323472,1.205201,2.630881,778.90,15.00,highres
15.463843,9797094224,0.641599,0.006851,-9.758490,0.000506,-0.000314,-0.000649,0.323472,1.205201,2.630881,778.90,15.00,highres
15.478972,9797099383,0.640351,0.000577,-9.762336,0.000200,0.001043,-0.000451,0.322725,1.206642,2.633700,778.90,15.00,highres
15.487837,9797114008,0.642556,-0.004774,-9.750770,-0.000579,0.000330,-0.000925,0.322725,1.206642,2.633700,778.90,15.00,highres
15.494063,9797123796,0.643663,0.001622,-9.756094,-0.000716,0.001119,-0.000042,0.322725,1.206642,2.633700,778.90,15.00,highres
15.512717,9797134168,0.638882,-0.002511,-9.754355,0.000347,0.000296,0.000611,0.322725,1.206642,2.633700,778.90,15.00,highres
15.521679,9797144020,0.638874,0.006410,-9.753700,0.000375,0.001058,-0.001019,0.322725,1.206642,2.633700,778.90,15.00,highres
15.533083,9797159074,0.637677,-0.006757,-9.758489,-0.000716,0.000082,0.001254,0.322725,1.206642,2.633700,778.90,15.00,highres
15.534174,9797163762,0.635236,0.000504,-9.751290,0.000200,-0.000206,0.000771,0.322725,1.206642,2.633700,778.90,15.00,highres
15.551946,9797174036,0.650478,-0.001072,-9.759192,0.000197,0.001720,-0.000198,0.322725,1.206642,2.633700,778.90,15.00,highres
15.555925,9797187983,0.652055,-0.002032,-9.757730,0.000043,-0.000350,-0.000926,0.322725,1.206642,2.633700,778.90,15.00,highres
15.565089,9797194785,0.640453,0.000255,-9.762452,-0.000576,-0.001251,-0.001120,0.322725,1.206642,2.633700,778.90,15.00,highres
15.580149,9797204219,0.648743,-0.004788,-9.740354,-0.001019,0.001033,-0.000775,0.322581,1.197474,2.632022,778.90,15.00,highres
15.587516,9797209285,0.641230,0.002209,-9.756068,0.000750,0.000361,-0.000717,0.322581,1.197474,2.632022,778.90,15.00,highres
15.597681,9797224345,0.640424,0.002287,-9.758752,-0.000701,0.000437,-0.000380,0.322581,1.197474,2.632022,778.90,15.00,highres
15.611273,9797234720,0.633409,0.002282,-9.759366,-0.000272,0.000465,-0.000283,0.322581,1.197474,2.632022,778.90,15.00,highres
15.620770,9797241978,0.644865,0.005629,-9.747943,-0.000006,0.001064,-0.001216,0.323737,1.204768,2.628266,778.90,15.00,highres
15.633162,9797254525,0.640642,0.002276,-9.751209,-0.000547,0.000344,0.000199,0.323737,1.204768,2.628266,778.90,15.00,highres
15.638717,9797267171,0.657051,-0.006093,-9.749071,0.000152,0.000900,-0.000339,0.323737,1.204768,2.628266,778.90,15.00,highres
15.645931,9797272189,0.641292,-0.000543,-9.744814,-0.000392,0.000419,-0.000055,0.323737,1.204768,2.628266,778.90,15.00,highres
15.655198,9797291685,0.641282,-0.001955,-9.759504,0.000394,0.001567,-0.000179,0.323737,1.204768,2.628266,778.91,15.00,highres
15.673049,9797302781,0.636494,0.002499,-9.750661,-0.000414,-0.000260,0.000141,0.323737,1.204768,2.628266,778.91,15.00,highres
15.680409,9797307722,0.646610,0.003154,-9.753082,0.000142,0.001780,-0.000109,0.323737,1.204768,2.628266,778.91,15.00,highres
15.687211,9797320152,0.645006,0.003632,-9.747933,0.000638,0.000690,-0.000538,0.323737,1.204768,2.628266,778.91,15.00,highres
15.695139,9797327369,0.642504,0.008768,-9.759428,-0.000108,-0.000334,0.000603,0.323737,1.204768,2.628266,778.91,15.00,highres
15.712709,9797340407,0.636494,0.000439,-9.751126,-0.000414,-0.000497,-0.001081,0.323737,1.204768,2.628266,778.91,15.00,highres
15.721617,9797348972,0.636294,0.006605,-9.757168,-0.000287,0.000143,-0.001386,0.315258,1.207280,2.631464,778.91,15.00,highres
15.732656,9797362998,0.640872,-0.006570,-9.745404,-0.000809,0.001694,-0.001081,0.315258,1.207280,2.631464,778.91,15.00,highres
15.734311,9797367790,0.652055,0.015464,-9.738042,0.001198,0.000040,-0.001238,0.315258,1.207280,2.631464,778.91,15.00,highres
15.752271,9797374259,0.642496,0.008868,-9.756948,0.000025,0.001511,0.000053,0.315258,1.207280,2.631464,778.91,15.00,highres
15.756106,9797383855,0.639327,0.009697,-9.739847,0.001350,0.000669,0.000447,0.320118,1.208506,2.632241,778.91,15.00,highres
15.768366,9797396773,0.630477,0.004730,-9.737336,-0.001167,0.001232,-0.000203,0.320118,1.208506,2.632241,778.91,15.00,highres
15.779417,9797409061,0.643676,0.001636,-9.757112,-0.000230,0.000848,0.000630,0.320118,1.208506,2.632241,778.91,15.00,highres
15.792522,9797422190,0.641881,0.006948,-9.751874,-0.000327,0.001815,0.000032,0.320118,1.208506,2.632241,778.91,15.00,highres
15.793908,9797428975,0.647238,0.005168,-9.746951,0.000808,0.001500,-0.000000,0.320118,1.208506,2.632241,778.91,15.00,highres
15.813675,9797442235,0.632081,0.000746,-9.757181,0.000023,0.000725,-0.000566,0.320118,1.208506,2.632241,778.91,15.00,highres
15.817401,9797447548,0.624523,-0.016494,-9.749756,0.000402,-0.000192,-0.000062,0.320118,1.208506,2.632241,778.91,15.00,highres
15.832752,9797457333,0.649072,0.005906,-9.741032,-0.000715,0.001490,-0.000465,0.320118,1.208506,2.632241,778.91,15.00,highres
15.834987,9797469101,0.641927,0.001273,-9.769445,-0.000173,0.001095,0.000272,0.320118,1.208506,2.632241,778.91,15.00,highres
15.845724,9797481763,0.647267,-0.003152,-9.757112,0.000144,0.000546,-0.000470,0.320118,1.208506,2.632241,778.91,15.00,highres
15.856474,9797486653,0.650670,0.001972,-9.754959,-0.000108,0.000419,-0.000164,0.314900,1.210488,2.642014,778.91,15.00,highres
15.872116,9797499884,0.636506,0.009589,-9.756709,0.000753,0.000254,-0.000275,0.314900,1.210488,2.642014,778.91,15.00,highres
15.879197,9797509384,0.638790,0.009563,-9.739706,0.000503,-0.000827,-0.000354,0.314900,1.210488,2.642014,778.91,15.00,highres
15.889064,9797517174,0.640394,-0.000179,-9.743810,0.000424,0.000419,0.000378,0.314900,1.210488,2.642014,778.91,15.00,highres
15.893748,9797527359,0.651039,0.008096,-9.754898,-0.000108,0.000419,0.000141,0.327821,1.208576,2.629678,778.91,15.00,highres
15.911045,9797534112,0.647082,0.007350,-9.752138,-0.000308,0.000220,-0.000164,0.327821,1.208576,2.629678,778.91,15.00,highres
15.921147,9797554816,0.645261,0.010016,-9.749781,0.001587,0.001809,-0.000775,0.327821,1.208576,2.629678,778.91,15.00,highres
15.932381,9797559219,0.649743,0.001636,-9.751848,0.000545,0.000767,-0.000022,0.327821,1.208576,2.629678,778.91,15.00,highres
15.936628,9797571999,0.638888,-0.006743,-9.748732,-0.000719,0.000927,-0.000065,0.327821,1.208576,2.629678,778.91,15.00,highres
15.952625,9797582234,0.656263,0.001056,-9.762368,-0.000285,0.001493,0.001048,0.327821,1.208576,2.629678,778.91,15.00,highres
15.956369,9797587141,0.648464,0.005227,-9.751127,-0.001330,0.000725,0.000447,0.327821,1.208576,2.629678,778.91,15.00,highres
15.966455,9797599173,0.642911,0.003034,-9.758359,-0.000229,0.001087,0.000447,0.327821,1.208576,2.629678,778.91,15.00,highres
15.979810,9797610462,0.640705,0.001680,-9.752900,0.001114,-0.000497,-0.000470,0.327821,1.208576,2.629678,778.90,15.00,highres
15.992609,9797614554,0.648333,-0.008464,-9.748600,0.001329,0.001013,0.000429,0.327821,1.208576,2.629678,778.90,15.00,highres
15.995002,9797628112,0.641282,0.006424,-9.760704,0.000197,0.000725,-0.000470,0.317928,1.208069,2.631657,778.90,15.00,highres
16.007641,9797634260,0.649599,0.003140,-9.767854,0.000379,0.001302,0.000719,0.317928,1.208069,2.631657,778.90,15.00,highres
16.020383,9797640644,0.644100,-0.004934,-9.757641,-0.001024,0.000725,-0.000164,0.317928,1.208069,2.631657,778.90,15.00,highres
16.032762,9797651494,0.640295,0.011112,-9.763618,0.000413,0.000024,-0.000470,0.317928,1.208069,2.631657,778.90,15.00,highres
16.034657,9797666788,0.636494,0.008819,-9.746340,0.000361,0.003615,0.000118,0.320759,1.206582,2.629263,778.90,15.00,highres
16.049442,9797676916,0.649367,0.013306,-9.754646,0.001817,0.001734,-0.000058,0.320759,1.206582,2.629263,778.90,15.00,highres
16.056705,9797684208,0.634929,0.005595,-9.762178,-0.000310,0.001002,-0.000150,0.320759,1.206582,2.629263,778.90,15.00,highres
16.064398,9797694818,0.631038,-0.009194,-9.738822,0.000812,0.001482,-0.000771,0.320759,1.206582,2.629263,778.90,15.00,highres
16.079801,9797707342,0.637510,0.000767,-9.756618,-0.000233,0.000905,-0.000178,0.320759,1.206582,2.629263,778.90,15.00,highres
16.093840,9797716859,0.635770,0.004120,-9.754378,-0.000763,0.001358,-0.001222,0.320759,1.206582,2.629263,778.90,15.00,highres
16.094765,9797724076,0.642051,0.010301,-9.757255,-0.001416,0.002252,-0.000164,0.320759,1.206582,2.629263,778.90,15.00,highres
16.112572,9797729779,0.646441,0.001241,-9.751928,0.000808,0.000114,-0.000372,0.320759,1.206582,2.629263,778.90,15.00,highres
16.121136,9797742009,0.644085,0.009849,-9.753398,-0.000124,0.001030,-0.000309,0.320759,1.206582,2.629263,778.90,15.00,highres
16.132718,9797764182,0.647267,0.004030,-9.752323,0.000635,0.001983,0.000016,0.320759,1.206582,2.629263,778.91,15.00,highres
16.134571,9797769383,0.643676,0.003823,-9.749998,-0.000233,0.000600,-0.000899,0.321795,1.199635,2.634476,778.91,15.00,highres
16.152540,9797786012,0.644630,0.002359,-9.749692,0.000013,0.001824,0.000019,0.321795,1.199635,2.634476,778.91,15.00,highres
16.156733,9797792492,0.631866,-0.007358,-9.755949,-0.000166,-0.001215,-0.000214,0.321795,1.199635,2.634476,778.91,15.00,highres
16.179511,9797814310,0.638888,-0.003152,-9.767884,-0.000414,0.000114,0.001058,0.321664,1.195331,2.628808,778.91,15.00,highres
16.194716,9797825600,0.641936,0.007514,-9.732511,0.000392,-0.000386,-0.000414,0.321664,1.195331,2.628808,778.91,15.00,highres
16.197270,9797836591,0.637646,0.010488,-9.756388,0.000503,0.000335,-0.000386,0.321664,1.195331,2.628808,778.91,15.00,highres
16.216059,9797845367,0.638888,0.000439,-9.751126,-0.000108,0.000114,-0.000164,0.321664,1.195331,2.628808,778.91,15.00,highres
16.221295,9797856659,0.637006,-0.005888,-9.750613,0.000851,0.000682,-0.001212,0.321664,1.195331,2.628808,778.91,15.00,highres
16.235261,9797861530,0.638888,-0.007732,-9.756695,-0.000487,0.000419,-0.000038,0.321664,1.195331,2.628808,778.91,15.00,highres
16.247032,9797871491,0.641343,0.004336,-9.754779,0.000038,0.000432,0.000312,0.321664,1.195331,2.628808,778.91,15.00,highres
16.256140,9797882295,0.646295,0.001150,-9.754716,-0.000776,0.001212,-0.000470,0.321664,1.195331,2.628808,778.91,15.00,highres
16.257229,9797892335,0.638888,-0.001955,-9.755915,0.000503,0.001030,-0.001691,0.321664,1.195331,2.628808,778.91,15.00,highres
16.279632,9797910254,0.644689,-0.006468,-9.749192,0.000174,0.000513,-0.000564,0.321664,1.195331,2.628808,778.91,15.00,highres
16.281883,9797914711,0.628598,0.026970,-9.759346,-0.002205,0.001162,0.000884,0.329146,1.205095,2.626679,778.91,15.00,highres
16.294141,9797924636,0.659238,-0.018714,-9.763097,0.001419,0.000725,-0.000164,0.329146,1.205095,2.626679,778.91,15.00,highres
16.303946,9797937076,0.635744,0.007900,-9.747414,0.002526,0.000763,-0.000661,0.329146,1.205095,2.626679,778.91,15.00,highres
16.303946,9797942681,0.640133,-0.008175,-9.762756,-0.000414,0.002557,-0.000164,0.325461,1.201289,2.627030,778.91,15.00,highres
16.303946,9797953398,0.649589,-0.000830,-9.746194,0.002131,0.000725,-0.000470,0.325461,1.201289,2.627030,778.91,15.00,highres
16.303946,9797957112,0.652465,-0.004759,-9.752820,0.000751,0.000004,0.000475,0.325461,1.201289,2.627030,778.91,15.00,highres
16.346069,9797969611,0.638888,-0.001955,-9.754718,0.000808,-0.001108,-0.000164,0.325461,1.201289,2.627030,778.91,15.00,highres
16.356048,9797987006,0.634099,-0.004349,-9.757111,-0.000253,-0.001092,0.000061,0.325461,1.201289,2.627030,778.91,15.00,highres
16.356791,9797992129,0.631754,0.021697,-9.759125,-0.000988,-0.000437,0.000312,0.325461,1.201289,2.627030,778.91,15.00,highres
16.374017,9798004617,0.644526,-0.009861,-9.744922,0.000053,0.000308,-0.000325,0.325461,1.201289,2.627030,778.91,15.00,highres
16.387756,9798009967,0.636473,0.005630,-9.741735,0.000508,-0.000942,0.000902,0.325461,1.201289,2.627030,778.91,15.00,highres
16.396456,9798023500,0.637876,-0.043055,-9.758149,-0.001635,0.002218,-0.000850,0.325461,1.201289,2.627030,778.91,15.00,highres
16.398174,9798035238,0.650605,0.000608,-9.731839,0.000245,-0.000979,0.000270,0.325461,1.201289,2.627030,778.91,15.00,highres
16.416645,9798047885,0.623242,-0.024589,-9.754910,-0.000455,0.001553,-0.000972,0.323732,1.201888,2.628795,778.91,15.00,highres
16.421238,9798052116,0.629311,-0.003152,-9.743944,0.000503,-0.000555,-0.000406,0.323732,1.201888,2.628795,778.91,15.00,highres
16.437259,9798062631,0.639474,0.012960,-9.746019,-0.000414,0.000414,-0.000320,0.323732,1.201888,2.628795,778.91,15.00,highres
16.446412,9798079977,0.634423,-0.002062,-9.745792,0.001401,0.000629,-0.000374,0.323732,1.201888,2.628795,778.91,15.00,highres
16.455288,9798084746,0.646288,-0.003443,-9.748878,0.000197,0.000419,0.000715,0.323732,1.201888,2.628795,778.91,15.00,highres
16.456794,9798090663,0.637201,0.006207,-9.757492,-0.000280,0.000515,0.000217,0.323260,1.203581,2.625116,778.91,15.00,highres
16.476950,9798100498,0.640159,-0.001251,-9.747610,0.000222,0.001781,0.000587,0.323260,1.203581,2.625116,778.91,15.00,highres
16.483364,9798112587,0.637855,-0.000242,-9.751784,-0.000150,0.000156,-0.000470,0.323260,1.203581,2.625116,778.91,15.00,highres
16.495419,9798124349,0.637957,0.000505,-9.743745,-0.000612,0.000419,0.000141,0.323260,1.203581,2.625116,778.91,15.00,highres
16.497243,9798134541,0.639977,0.007185,-9.738180,0.000364,0.000059,-0.000303,0.323260,1.203581,2.625116,778.91,15.00,highres
16.517122,9798144769,0.647549,-0.007764,-9.749294,-0.000369,0.001641,0.000563,0.323260,1.203581,2.625116,778.91,15.00,highres
16.520772,9798157291,0.634111,0.010910,-9.753084,0.000808,0.000725,-0.000433,0.323260,1.203581,2.625116,778.91,15.00,highres
16.535257,9798164781,0.645746,0.003513,-9.748407,0.000613,0.000920,-0.000360,0.323260,1.203581,2.625116,778.91,15.00,highres
16.545731,9798170843,0.638231,-0.003385,-9.751126,-0.000108,0.000725,-0.000470,0.323260,1.203581,2.625116,778.91,15.00,highres
16.555015,9798178591,0.645772,-0.012878,-9.747011,-0.001172,0.000861,0.000447,0.323260,1.203581,2.625116,778.91,15.00,highres
16.560522,9798190501,0.647243,-0.004605,-9.753271,0.000357,0.001151,-0.000163,0.322623,1.203352,2.634630,778.91,15.00,highres
16.574721,9798202879,0.631681,-0.004590,-9.758246,-0.000634,0.001284,0.000233,0.322623,1.203352,2.634630,778.91,15.00,highres
16.578253,9798212080,0.645600,-0.008319,-9.742756,0.000058,0.000692,-0.000031,0.322623,1.203352,2.634630,778.91,15.00,highres
16.595089,9798217811,0.641680,-0.000391,-9.752228,-0.000192,0.000325,-0.000214,0.322836,1.202744,2.626356,778.91,15.00,highres
16.601285,9798230322,0.639738,0.000815,-9.750248,-0.000649,0.001266,-0.001118,0.322836,1.202744,2.626356,778.91,15.00,highres
16.614207,9798237235,0.641810,-0.007422,-9.749869,0.000080,0.001163,0.000059,0.322836,1.202744,2.626356,778.91,15.00,highres
16.621586,9798248431,0.640060,0.007111,-9.747460,-0.000114,0.000247,-0.000111,0.322836,1.202744,2.626356,778.91,15.00,highres
16.634990,9798259903,0.641257,0.001837,-9.760437,-0.000224,0.000732,-0.000774,0.322836,1.202744,2.626356,778.91,15.00,highres
16.645878,9798269718,0.648661,-0.008051,-9.761401,0.001107,0.000336,-0.000774,0.322836,1.202744,2.626356,778.91,15.00,highres
16.655342,9798276956,0.632878,-0.000761,-9.754657,-0.000408,0.000437,0.000142,0.322836,1.202744,2.626356,778.91,15.00,highres
16.656654,9798287571,0.647781,0.012047,-9.749569,0.000163,0.001454,-0.000469,0.322836,1.202744,2.626356,778.91,15.00,highres
16.674935,9798297866,0.632659,-0.006798,-9.758517,0.001182,0.001342,-0.001236,0.322836,1.202744,2.626356,778.91,15.00,highres
16.680179,9798309746,0.639045,-0.004528,-9.745938,0.000191,0.001730,-0.000469,0.322836,1.202744,2.626356,778.91,15.00,highres
16.694463,9798319759,0.645027,-0.008274,-9.742805,-0.000725,0.000579,-0.000011,0.317336,1.199501,2.637815,778.92,15.00,highres
16.698850,9798330474,0.646033,-0.006734,-9.748450,0.000575,0.000426,0.000142,0.317336,1.199501,2.637815,778.92,15.00,highres
16.714533,9798340488,0.649226,0.009030,-9.756014,-0.000633,0.000997,0.000447,0.317336,1.199501,2.637815,778.92,15.00,highres
16.721352,9798346296,0.637694,0.002830,-9.752875,0.000497,0.000430,-0.000875,0.317336,1.199501,2.637815,778.92,15.00,highres
16.734731,9798357997,0.638386,-0.003038,-9.753107,0.000207,0.000426,-0.000324,0.330786,1.205907,2.633435,778.92,15.00,highres
16.745855,9798370925,0.656656,-0.000377,-9.733625,0.000322,0.000951,0.000229,0.330786,1.205907,2.633435,778.92,15.00,highres
16.754478,9798375551,0.623231,-0.025674,-9.733195,0.000586,0.000468,0.000753,0.330786,1.205907,2.633435,778.92,15.00,highres
16.759314,9798388469,0.649279,0.016775,-9.727570,-0.002615,0.002922,-0.000407,0.330786,1.205907,2.633435,778.92,15.00,highres
16.774235,9798397622,0.645894,-0.011435,-9.774459,0.002024,-0.001712,-0.000469,0.330786,1.205907,2.633435,778.92,15.00,highres
16.779673,9798405477,0.590981,-0.014335,-9.780169,0.000774,-0.001223,0.001848,0.330786,1.205907,2.633435,778.92,15.00,highres
16.796555,9798415878,0.668825,-0.007247,-9.710887,-0.001031,0.003786,0.000142,0.330786,1.205907,2.633435,778.92,15.00,highres
16.798412,9798430267,0.661027,0.000398,-9.748520,0.000593,0.000330,-0.000357,0.330786,1.205907,2.633435,778.92,15.00,highres
16.814785,9798440575,0.610616,-0.004087,-9.749901,-0.001351,0.002564,-0.000469,0.330786,1.205907,2.633435,778.92,15.00,highres
16.821259,9798446359,0.626776,0.012202,-9.772349,0.000893,0.000992,-0.000118,0.330786,1.205907,2.633435,778.92,15.00,highres
16.837251,9798465679,0.661766,0.001181,-9.730580,-0.000034,0.000506,-0.000339,0.321941,1.200536,2.626511,778.92,15.00,highres
16.845413,9798469963,0.645451,-0.003155,-9.748671,0.000207,0.000152,-0.000759,0.321941,1.200536,2.626511,778.92,15.00,highres
16.855051,9798485634,0.644577,0.000987,-9.734027,0.001107,0.000402,-0.000023,0.321941,1.200536,2.626511,778.93,15.00,highres
16.862708,9798492291,0.654320,0.001633,-9.739723,0.000084,0.001342,0.000069,0.321941,1.200536,2.626511,778.93,15.00,highres
16.875373,9798499864,0.639029,-0.004865,-9.760642,-0.001031,-0.000140,0.000228,0.321941,1.200536,2.626511,778.93,15.00,highres
16.889433,9798517140,0.642420,0.003468,-9.748648,0.000493,0.000584,-0.000009,0.327156,1.196104,2.634904,778.93,15.00,highres
16.894899,9798523577,0.645384,-0.003691,-9.745363,-0.000764,0.001667,-0.000306,0.327156,1.196104,2.634904,778.93,15.00,highres
16.897349,9798529408,0.647202,-0.010805,-9.746784,-0.001020,0.000721,-0.000686,0.327156,1.196104,2.634904,778.93,15.00,highres
16.914199,9798540886,0.634175,-0.008044,-9.755256,0.000497,0.001544,0.000772,0.327156,1.196104,2.634904,778.93,15.00,highres
16.923105,9798545697,0.651293,0.020127,-9.733230,-0.000496,0.001115,-0.000430,0.327156,1.196104,2.634904,778.93,15.00,highres
16.934339,9798557881,0.628848,-0.024269,-9.753463,0.000802,0.001037,0.000142,0.327156,1.196104,2.634904,778.93,15.00,highres
16.944851,9798569326,0.644978,-0.015967,-9.759801,0.000191,0.001648,0.000447,0.327156,1.196104,2.634904,778.93,15.00,highres
16.956048,9798575399,0.653228,-0.004353,-9.752262,-0.000198,0.001342,-0.000566,0.327156,1.196104,2.634904,778.93,15.00,highres
16.957859,9798585655,0.642850,0.000831,-9.740041,-0.000114,0.001648,0.000142,0.327156,1.196104,2.634904,778.93,15.00,highres
16.975328,9798597729,0.635960,-0.006178,-9.749928,-0.000114,0.001153,0.001080,0.327156,1.196104,2.634904,778.93,15.00,highres
16.978898,9798613411,0.632652,-0.010899,-9.753308,-0.000089,0.001140,-0.000130,0.326634,1.206846,2.628468,778.93,15.00,highres
16.995772,9798623390,0.658381,0.009621,-9.749843,-0.000825,0.002153,-0.001080,0.326634,1.206846,2.628468,778.93,15.00,highres
16.997023,9798633826,0.637584,-0.009154,-9.754778,-0.000421,0.000731,0.000135,0.326634,1.206846,2.628468,778.93,15.00,highres
17.013541,9798638401,0.642048,-0.011000,-9.763057,-0.001172,-0.000103,0.000135,0.326634,1.206846,2.628468,778.93,15.00,highres
17.021325,9798653269,0.648714,-0.001487,-9.751801,-0.001614,0.000925,-0.000392,0.322718,1.212996,2.636335,778.92,15.00,highres
17.036779,9798666158,0.638696,0.002275,-9.758369,-0.000820,0.000614,0.000513,0.322718,1.212996,2.636335,778.92,15.00,highres
17.045348,9798670953,0.635650,-0.003795,-9.745551,0.000350,0.000862,-0.000781,0.322718,1.212996,2.636335,778.92,15.00,highres
17.056076,9798683354,0.646796,-0.006030,-9.753893,0.000190,0.001187,0.000749,0.322718,1.212996,2.636335,778.92,15.00,highres
17.059772,9798692498,0.639824,-0.005485,-9.748078,0.000402,0.000519,-0.000195,0.322718,1.212996,2.636335,778.92,15.00,highres
17.073944,9798705360,0.619837,-0.022763,-9.761831,0.000059,0.001516,-0.000388,0.322718,1.212996,2.636335,778.92,15.00,highres
17.079415,9798711688,0.647161,-0.003169,-9.745203,0.001412,0.000425,-0.001087,0.322718,1.212996,2.636335,778.92,15.00,highres
17.093407,9798722726,0.627926,0.009452,-9.749505,-0.000860,0.000266,0.001051,0.322718,1.212996,2.636335,778.92,15.00,highres
17.097243,9798735324,0.646809,0.006366,-9.760311,0.001257,0.000350,0.000520,0.322718,1.212996,2.636335,778.92,15.00,highres
17.113604,9798742583,0.659363,0.007373,-9.747093,-0.000796,0.000613,0.000064,0.319367,1.203875,2.628690,778.92,15.00,highres
17.122951,9798752974,0.631599,-0.021944,-9.749645,-0.000806,0.001262,-0.000669,0.319367,1.203875,2.628690,778.92,15.00,highres
17.135816,9798763038,0.645269,0.005828,-9.771616,0.000269,0.001647,-0.000121,0.319367,1.203875,2.628690,778.92,15.00,highres
17.145243,9798775597,0.648358,-0.000774,-9.747597,0.000897,0.000417,-0.000170,0.319367,1.203875,2.628690,778.92,15.00,highres
17.156291,9798786326,0.641149,0.002561,-9.754320,-0.000065,0.001086,0.000263,0.316959,1.214336,2.630233,778.92,15.00,highres
17.162825,9798790473,0.636739,-0.004859,-9.760836,-0.000661,0.000990,-0.000606,0.316959,1.214336,2.630233,778.92,15.00,highres
17.175340,9798802856,0.648560,0.000971,-9.750437,0.000190,0.001176,0.000161,0.316959,1.214336,2.630233,778.92,15.00,highres
17.179864,9798815533,0.634181,-0.005944,-9.763218,-0.000566,0.001021,-0.000957,0.316959,1.214336,2.630233,778.92,15.00,highres
17.194324,9798825576,0.654821,0.007305,-9.742388,0.000621,0.000786,-0.000296,0.316959,1.214336,2.630233,778.92,15.00,highres
17.204541,9798833016,0.647085,0.010097,-9.744621,-0.000115,0.000923,-0.000860,0.316959,1.214336,2.630233,778.92,15.00,highres
17.214845,9798842955,0.637756,-0.002056,-9.755590,-0.000049,0.002138,-0.000728,0.316959,1.214336,2.630233,778.92,15.00,highres
17.220592,9798855456,0.647456,-0.012155,-9.751531,0.000519,0.000708,0.000418,0.316959,1.214336,2.630233,778.92,15.00,highres
17.235465,9798865495,0.649805,0.009504,-9.738517,-0.000618,0.001575,-0.000655,0.316959,1.214336,2.630233,778.92,15.00,highres
17.244171,9798875417,0.635022,-0.005027,-9.760144,-0.000728,-0.000178,0.000286,0.316959,1.214336,2.630233,778.92,15.00,highres
17.255726,9798882329,0.638935,-0.000239,-9.743902,-0.000726,0.000911,-0.000045,0.323824,1.200425,2.631435,778.92,15.00,highres
17.256852,9798893039,0.633849,-0.014496,-9.753670,0.000289,0.000722,0.000952,0.323824,1.200425,2.631435,778.92,15.00,highres
17.274654,9798905747,0.646875,0.005926,-9.751329,0.000557,0.000853,0.001051,0.323824,1.200425,2.631435,778.92,15.00,highres
17.283570,9798913226,0.650077,-0.002647,-9.744712,0.000696,0.001236,0.000029,0.323824,1.200425,2.631435,778.92,15.00,highres
17.294444,9798923288,0.647152,0.005788,-9.745185,-0.000421,0.001493,-0.000630,0.323824,1.200425,2.631435,778.92,15.00,highres
17.297881,9798936374,0.636785,-0.011176,-9.753978,-0.000523,0.000932,0.000440,0.321104,1.204922,2.636315,778.92,15.00,highres
17.313409,9798943111,0.645664,0.011915,-9.745083,-0.000726,0.002197,0.001189,0.321104,1.204922,2.636315,778.92,15.00,highres
17.313409,9798950872,0.647590,-0.000527,-9.747934,0.000128,0.000179,0.000315,0.321104,1.204922,2.636315,778.92,15.00,highres
17.313409,9798964863,0.651886,0.024479,-9.757121,0.000650,0.002104,-0.000630,0.321104,1.204922,2.636315,778.93,15.00,highres
17.313409,9798976384,0.639917,0.007760,-9.750263,-0.001139,-0.000937,-0.000946,0.321104,1.204922,2.636315,778.93,15.00,highres
17.355545,9798981496,0.624417,-0.028307,-9.775128,0.000496,0.000425,0.000135,0.321104,1.204922,2.636315,778.93,15.00,highres
17.358067,9798992952,0.635951,0.018237,-9.768575,-0.001745,0.004845,-0.000781,0.321104,1.204922,2.636315,778.93,15.00,highres
17.373909,9799006582,0.678411,-0.004791,-9.699933,-0.000621,-0.002271,-0.000795,0.321104,1.204922,2.636315,778.93,15.00,highres
17.379427,9799011458,0.623796,-0.022403,-9.764948,0.000074,-0.000477,0.000935,0.321104,1.204922,2.636315,778.93,15.00,highres
17.393820,9799023519,0.634639,0.007476,-9.747951,-0.000473,0.002343,-0.000408,0.319525,1.203353,2.633107,778.93,15.00,highres
17.397138,9799036831,0.644909,-0.002511,-9.742976,-0.000111,-0.000036,-0.000170,0.319525,1.203353,2.633107,778.93,15.00,highres
17.420880,9799042746,0.612792,-0.004386,-9.767217,-0.002470,0.004478,0.000352,0.319525,1.203353,2.633107,778.93,15.00,highres
17.434587,9799056624,0.671497,0.005453,-9.723171,0.000915,-0.000377,0.000937,0.319525,1.203353,2.633107,778.93,15.00,highres
17.436272,9799069252,0.651950,-0.000703,-9.750483,-0.002562,-0.000286,0.000135,0.330211,1.203132,2.629046,778.93,15.00,highres
17.455015,9799078139,0.629429,-0.008399,-9.759567,-0.000115,-0.001407,-0.000170,0.330211,1.203132,2.629046,778.93,15.00,highres
17.456367,9799089101,0.654074,0.010154,-9.743330,0.001910,0.000120,0.000078,0.330211,1.203132,2.629046,778.93,15.00,highres
17.474127,9799093065,0.657552,0.006968,-9.744335,-0.001416,0.001475,-0.000343,0.330211,1.203132,2.629046,778.93,15.00,highres
17.480047,9799106027,0.629205,-0.004336,-9.763533,-0.000647,-0.000205,0.001002,0.330211,1.203132,2.629046,778.93,15.00,highres
17.494951,9799118742,0.650675,-0.002795,-9.741386,0.001500,0.001538,-0.000880,0.330211,1.203132,2.629046,778.92,15.00,highres
17.497650,9799123147,0.657346,0.002212,-9.742187,-0.000421,0.001513,0.000307,0.330211,1.203132,2.629046,778.92,15.00,highres
17.513725,9799137897,0.635496,0.006473,-9.746835,0.000478,0.001232,-0.000205,0.330211,1.203132,2.629046,778.92,15.00,highres
17.520846,9799148862,0.641176,0.000423,-9.735626,0.000190,0.000297,-0.000476,0.330211,1.203132,2.629046,778.92,15.00,highres
17.534571,9799155958,0.636031,-0.005474,-9.746756,-0.000115,0.000425,-0.000170,0.322614,1.203543,2.631927,778.92,15.00,highres
17.544730,9799166566,0.642423,-0.007383,-9.760191,0.000345,0.000262,0.000896,0.322614,1.203543,2.631927,778.92,15.00,highres
17.554046,9799179579,0.633993,0.012393,-9.748793,-0.000464,0.000905,0.001051,0.322614,1.203543,2.631927,778.92,15.00,highres
17.555964,9799186260,0.639816,0.005428,-9.750726,-0.000726,0.000257,0.000125,0.322614,1.203543,2.631927,778.92,15.00,highres
17.573750,9799198353,0.650752,-0.006760,-9.757172,-0.001470,-0.000357,0.000097,0.322614,1.203543,2.631927,778.93,15.00,highres
17.580262,9799203398,0.637852,-0.005177,-9.747171,0.000190,0.001342,0.000746,0.320214,1.202880,2.635997,778.93,15.00,highres
17.593988,9799213190,0.640852,0.000067,-9.748307,-0.000927,-0.000386,0.000231,0.320214,1.202880,2.635997,778.93,15.00,highres
17.597132,9799227537,0.637585,-0.000774,-9.751188,-0.000575,0.000731,0.000742,0.320214,1.202880,2.635997,778.93,15.00,highres
17.615102,9799238194,0.633552,-0.004969,-9.750737,-0.000271,0.000874,0.000752,0.320214,1.202880,2.635997,778.93,15.00,highres
17.621314,9799249753,0.641846,-0.001971,-9.753726,0.000190,0.001036,0.000135,0.320214,1.202880,2.635997,778.93,15.00,highres
17.633216,9799253674,0.642793,0.005863,-9.754358,0.000630,0.000157,-0.000342,0.320214,1.202880,2.635997,778.93,15.00,highres
17.646097,9799268931,0.644427,0.001182,-9.754011,0.000317,0.000120,0.000198,0.320214,1.202880,2.635997,778.93,15.00,highres
17.654681,9799278694,0.641176,-0.000774,-9.752384,-0.001152,0.000555,0.000310,0.320214,1.202880,2.635997,778.92,15.00,highres
17.656321,9799288682,0.648282,0.007411,-9.748988,-0.001814,0.000369,-0.000704,0.320214,1.202880,2.635997,778.92,15.00,highres
17.675466,9799298829,0.645919,-0.007923,-9.748222,-0.001146,0.000386,-0.000515,0.320214,1.202880,2.635997,778.92,15.00,highres
17.680435,9799303676,0.653097,-0.007859,-9.750089,-0.000112,0.001344,-0.000627,0.316134,1.206546,2.630323,778.92,15.00,highres
17.695890,9799324115,0.641411,0.005328,-9.746399,-0.000115,0.002372,-0.000316,0.316134,1.206546,2.630323,778.92,15.00,highres
17.697546,9799330984,0.634115,0.001864,-9.746210,0.000081,0.000194,-0.000770,0.316134,1.206546,2.630323,778.92,15.00,highres
17.715105,9799340957,0.636365,-0.002542,-9.745225,0.000052,0.001174,-0.000476,0.316134,1.206546,2.630323,778.92,15.00,highres
17.720809,9799347326,0.650746,-0.006012,-9.751333,0.000351,0.000570,0.000168,0.319010,1.209666,2.630090,778.92,15.00,highres
17.732580,9799363370,0.641239,0.026949,-9.760961,0.000242,-0.000543,-0.000107,0.319010,1.209666,2.630090,778.92,15.00,highres
17.745634,9799368057,0.639348,-0.010278,-9.774982,-0.000726,0.000731,-0.000781,0.319010,1.209666,2.630090,778.92,15.00,highres
17.754214,9799379372,0.661187,-0.013407,-9.772396,-0.000421,0.000100,0.000603,0.319010,1.209666,2.630090,778.92,15.00,highres
17.757563,9799394735,0.636991,0.003085,-9.754354,-0.002038,0.000832,-0.000080,0.319010,1.209666,2.630090,778.92,15.00,highres
17.766102,9799398182,0.624515,0.004225,-9.738078,0.000959,0.002869,-0.000284,0.319010,1.209666,2.630090,778.92,15.00,highres
17.779652,9799416138,0.649299,-0.000397,-9.738018,0.001220,0.001174,0.000357,0.319010,1.209666,2.630090,778.92,15.00,highres
17.794102,9799424278,0.640799,-0.003546,-9.759632,-0.000331,0.000641,-0.000081,0.319010,1.209666,2.630090,778.92,15.00,highres
17.795970,9799433300,0.642008,-0.007436,-9.749936,-0.000115,-0.000053,-0.001392,0.319010,1.209666,2.630090,778.92,15.00,highres
17.813558,9799438291,0.652230,0.004740,-9.757032,-0.000421,-0.001407,-0.000880,0.319010,1.209666,2.630090,778.92,15.00,highres
17.821163,9799451185,0.645219,-0.003620,-9.743015,0.000296,0.002174,0.000251,0.321775,1.202381,2.631714,778.92,15.00,highres
17.835371,9799463474,0.647161,-0.005076,-9.753098,-0.000270,0.001952,0.000873,0.321775,1.202381,2.631714,778.92,15.00,highres
17.846303,9799473311,0.634952,0.005973,-9.753057,0.000655,-0.000332,-0.000932,0.321775,1.202381,2.631714,778.92,15.00,highres
17.854560,9799478445,0.625614,0.010959,-9.753124,-0.000556,0.000617,0.000259,0.321775,1.202381,2.631714,778.92,15.00,highres
17.856659,9799493458,0.649528,-0.001618,-9.739230,-0.000198,-0.000351,-0.000781,0.324754,1.209226,2.627457,778.92,15.00,highres
17.872925,9799501248,0.641802,-0.003426,-9.743122,-0.000421,-0.000007,0.000332,0.324754,1.209226,2.627457,778.92,15.00,highres
17.879878,9799514470,0.645718,-0.002709,-9.752629,0.000617,0.001157,-0.001300,0.324754,1.209226,2.627457,778.92,15.00,highres
17.893877,9799519008,0.637698,0.003900,-9.743892,0.000663,0.000316,-0.000200,0.324754,1.209226,2.627457,778.93,15.00,highres
17.895542,9799533796,0.639158,0.004834,-9.741987,-0.000935,0.000827,-0.000781,0.324754,1.209226,2.627457,778.93,15.00,highres
17.914757,9799541403,0.639979,0.000356,-9.751222,-0.000260,0.000270,-0.000170,0.324754,1.209226,2.627457,778.93,15.00,highres
17.920080,9799553714,0.644925,0.000838,-9.751394,0.000926,0.000233,-0.000170,0.324754,1.209226,2.627457,778.93,15.00,highres
17.934965,9799563673,0.649219,0.022878,-9.725401,0.000412,-0.000269,-0.000531,0.324754,1.209226,2.627457,778.93,15.00,highres
17.937579,9799569372,0.654557,-0.002480,-9.754067,0.000467,0.000189,0.000538,0.324754,1.209226,2.627457,778.93,15.00,highres
17.956474,9799582320,0.637132,-0.004374,-9.754272,-0.000097,0.001419,-0.001048,0.324754,1.209226,2.627457,778.93,15.00,highres
17.958102,9799593843,0.631185,-0.011335,-9.764521,-0.000657,-0.000547,-0.000476,0.324550,1.204572,2.635290,778.93,15.00,highres
17.974326,9799599156,0.623031,-0.006084,-9.770947,-0.000115,0.002869,0.000135,0.324550,1.204572,2.635290,778.92,15.00,highres
17.981007,9799612695,0.642373,-0.001971,-9.735627,0.000496,0.000163,0.000702,0.324550,1.204572,2.635290,778.92,15.00,highres
17.996636,9799623621,0.643093,-0.009313,-9.757099,-0.000198,0.000300,-0.000823,0.329806,1.192492,2.638149,778.92,15.00,highres
17.997717,9799633362,0.649555,0.004534,-9.737186,0.000345,-0.001256,-0.000321,0.329806,1.192492,2.638149,778.92,15.00,highres
18.015540,9799638596,0.643848,0.003370,-9.739861,0.000070,0.000383,-0.000618,0.329806,1.192492,2.638149,778.92,15.00,highres
18.021498,9799654790,0.625197,-0.012968,-9.748839,-0.000063,0.001024,-0.001091,0.329806,1.192492,2.638149,778.92,15.00,highres
18.035268,9799664299,0.661659,-0.005301,-9.764658,0.001846,0.000719,-0.000480,0.329806,1.192492,2.638149,778.92,15.00,highres
18.046449,9799673947,0.647886,0.001608,-9.750762,-0.001027,0.001148,0.001047,0.329806,1.192492,2.638149,778.92,15.00,highres
18.055791,9799683653,0.636885,-0.002555,-9.733891,-0.000080,-0.000167,0.000268,0.329806,1.192492,2.638149,778.91,15.00,highres
18.057644,9799689164,0.643521,-0.011268,-9.751335,-0.000875,-0.001497,-0.001167,0.329806,1.192492,2.638149,778.91,15.00,highres
18.075431,9799707284,0.643519,0.007599,-9.731310,-0.000132,0.001161,-0.000175,0.329806,1.192492,2.638149,778.91,15.00,highres
18.083414,9799711250,0.641068,0.015186,-9.739466,0.000654,-0.000197,0.000741,0.329806,1.192492,2.638149,778.91,15.00,highres
18.095002,9799718792,0.638733,-0.003775,-9.751203,-0.000922,0.000318,0.000742,0.329806,1.192492,2.638149,778.91,15.00,highres
18.096787,9799729198,0.648309,0.004620,-9.756433,-0.000263,0.001177,0.000131,0.314738,1.206302,2.633186,778.91,15.00,highres
18.113884,9799744107,0.626981,0.003934,-9.763226,-0.000699,0.000414,0.000142,0.314738,1.206302,2.633186,778.91,15.00,highres
18.122480,9799754565,0.652687,0.011571,-9.744413,-0.001950,0.001756,0.000372,0.314738,1.206302,2.633186,778.91,15.00,highres
18.135354,9799759075,0.678960,0.005775,-9.715097,0.000990,-0.000261,-0.000338,0.310764,1.209972,2.643262,778.91,15.00,highres
18.145522,9799772154,0.619702,-0.007040,-9.762710,-0.001143,0.001298,-0.000859,0.310764,1.209972,2.643262,778.91,15.00,highres
18.154328,9799780743,0.636212,0.005305,-9.756863,-0.000721,0.001810,0.000065,0.310764,1.209972,2.643262,778.91,15.00,highres
18.156953,9799796102,0.643445,0.003996,-9.753481,-0.000630,0.000933,-0.000266,0.310764,1.209972,2.643262,778.91,15.00,highres
18.174378,9799801592,0.636339,-0.007949,-9.749253,-0.000909,0.001212,-0.000244,0.310764,1.209972,2.643262,778.91,15.00,highres
18.186824,9799811785,0.638973,-0.001966,-9.754999,0.000195,0.001094,0.000249,0.310764,1.209972,2.643262,778.91,15.00,highres
18.193971,9799819050,0.643816,0.000283,-9.741858,-0.000271,0.000108,0.000276,0.310764,1.209972,2.643262,778.91,15.00,highres
18.196862,9799830972,0.634665,0.001465,-9.750695,-0.001505,0.000068,-0.000573,0.310764,1.209972,2.643262,778.91,15.00,highres
18.214037,9799837095,0.631702,-0.003920,-9.749559,-0.000847,0.000054,-0.001450,0.310764,1.209972,2.643262,778.91,15.00,highres
18.221096,9799848732,0.645885,-0.006475,-9.743073,0.000035,0.000879,-0.000480,0.310764,1.209972,2.643262,778.91,15.00,highres
18.234416,9799861186,0.632789,-0.003871,-9.759276,-0.000572,0.001024,-0.000624,0.310764,1.209972,2.643262,778.91,15.00,highres
18.246676,9799871031,0.653097,0.009644,-9.737754,0.000625,0.000357,-0.001272,0.317735,1.209027,2.638121,778.91,15.00,highres
18.254683,9799876812,0.647864,-0.001862,-9.739473,0.000500,0.000108,-0.000121,0.317735,1.209027,2.638121,778.91,15.00,highres
18.261357,9799891976,0.641057,-0.002231,-9.749254,-0.000533,0.000836,0.000859,0.317735,1.209027,2.638121,778.91,15.00,highres
18.275262,9799901313,0.640535,0.002233,-9.749873,0.000356,0.000543,-0.000480,0.310465,1.214253,2.639757,778.91,15.00,highres
18.279224,9799913588,0.652034,0.011405,-9.747423,-0.000883,0.000090,-0.001558,0.310465,1.214253,2.639757,778.91,15.00,highres
18.294651,9799923480,0.641127,-0.005775,-9.753394,-0.000615,-0.000184,-0.000879,0.310465,1.214253,2.639757,778.91,15.00,highres
18.301233,9799931116,0.630506,-0.002244,-9.740595,0.000195,0.000621,-0.000138,0.310465,1.214253,2.639757,778.91,15.00,highres
18.313917,9799942164,0.648110,0.013713,-9.748229,-0.000180,-0.000163,-0.001126,0.310465,1.214253,2.639757,778.91,15.00,highres
18.313917,9799951353,0.640513,0.003794,-9.757180,0.000501,-0.000197,0.000131,0.310465,1.214253,2.639757,778.91,15.00,highres
18.313917,9799956512,0.636082,-0.002989,-9.756866,-0.000007,0.000612,-0.000682,0.310465,1.214253,2.639757,778.91,15.00,highres
18.313917,9799974158,0.629956,-0.004223,-9.744068,0.000025,0.000176,0.000165,0.310465,1.214253,2.639757,778.91,15.00,highres
18.356083,9799981506,0.639376,-0.004634,-9.752567,0.000479,-0.000097,0.000415,0.310465,1.214253,2.639757,778.91,15.00,highres
18.358287,9799992222,0.649506,-0.001964,-9.752846,0.001417,0.000841,-0.000480,0.310465,1.214253,2.639757,778.91,15.00,highres
18.374815,9800004781,0.640890,-0.004645,-9.746885,-0.000229,0.000014,-0.000362,0.310465,1.214253,2.639757,778.92,15.00,highres
18.380817,9800010259,0.644121,-0.000597,-9.743783,-0.000307,0.000042,-0.000698,0.315505,1.207352,2.633960,778.92,15.00,highres
18.394616,9800019700,0.639793,-0.004221,-9.751781,0.000022,0.001015,-0.000480,0.315505,1.207352,2.633960,778.92,15.00,highres
18.396178,9800029311,0.648508,0.011698,-9.752447,-0.000110,0.000414,-0.000480,0.315505,1.207352,2.633960,778.92,15.00,highres
18.413685,9800039906,0.630391,-0.010324,-9.753930,0.001260,0.001165,-0.001248,0.321037,1.212399,2.622391,778.92,15.00,highres
18.420072,9800049501,0.645915,-0.001964,-9.746861,-0.000458,-0.000950,-0.001112,0.321037,1.212399,2.622391,778.92,15.00,highres
18.436470,9800060445,0.631922,0.008136,-9.752137,-0.000510,-0.000305,0.000028,0.321037,1.212399,2.622391,778.92,15.00,highres
18.437295,9800067079,0.641529,0.005297,-9.758515,-0.000257,0.001571,-0.000351,0.321037,1.212399,2.622391,778.92,15.00,highres
18.454018,9800080212,0.650118,0.005273,-9.756968,-0.000322,0.000601,-0.000175,0.321037,1.212399,2.622391,778.91,15.00,highres
18.465594,9800089884,0.642939,-0.004358,-9.743688,0.002944,0.000750,0.000902,0.321037,1.212399,2.622391,778.91,15.00,highres
18.474608,9800099836,0.640182,0.003517,-9.749046,-0.000626,0.000585,0.000532,0.321037,1.212399,2.622391,778.91,15.00,highres
18.478803,9800104089,0.638148,0.002734,-9.738940,0.000365,0.001466,-0.000447,0.321037,1.212399,2.622391,778.91,15.00,highres
18.494701,9800121897,0.635291,-0.002187,-9.752209,-0.000260,0.001194,0.000592,0.321037,1.212399,2.622391,778.91,15.00,highres
18.505715,9800134471,0.648073,0.001619,-9.757876,0.000372,0.000414,-0.000866,0.321037,1.212399,2.622391,778.91,15.00,highres
18.513764,9800141422,0.641784,-0.003923,-9.745664,0.001222,0.000303,0.000241,0.321037,1.212399,2.622391,778.91,15.00,highres
18.521472,9800151710,0.641127,0.011831,-9.739338,0.000355,0.001330,0.000146,0.317073,1.207090,2.639180,778.91,15.00,highres
18.534412,9800164160,0.632352,-0.003141,-9.763173,-0.000416,0.001242,0.000172,0.317073,1.207090,2.639180,778.92,15.00,highres
18.536370,9800173772,0.641373,0.004590,-9.749500,0.000339,0.000264,-0.000331,0.317073,1.207090,2.639180,778.92,15.00,highres
18.554780,9800186318,0.632197,0.005219,-9.757009,-0.000721,0.000156,-0.000621,0.322558,1.210781,2.631628,778.92,15.00,highres
18.556673,9800191490,0.627321,0.002709,-9.760568,0.000822,0.000269,-0.000866,0.322558,1.210781,2.631628,778.92,15.00,highres
18.573576,9800201959,0.641988,-0.006640,-9.744253,-0.001044,-0.000486,-0.000265,0.322558,1.210781,2.631628,778.92,15.00,highres
18.583831,9800211880,0.647789,0.006468,-9.749984,-0.000443,0.001157,0.001207,0.322558,1.210781,2.631628,778.92,15.00,highres
18.594993,9800224985,0.632086,0.002290,-9.748184,0.000163,0.002319,0.000268,0.322558,1.210781,2.631628,778.92,15.00,highres
18.596604,9800234348,0.630714,-0.002597,-9.754880,0.000368,0.001238,0.000304,0.322558,1.210781,2.631628,778.92,15.00,highres
18.614546,9800242788,0.640750,-0.000457,-9.746173,-0.000214,0.000920,-0.000376,0.322558,1.210781,2.631628,778.92,15.00,highres
18.624797,9800253629,0.652702,-0.007678,-9.752178,0.000636,0.001705,0.000030,0.322558,1.210781,2.631628,778.92,15.00,highres
18.633385,9800259797,0.648336,-0.003161,-9.751160,0.000617,0.001541,0.000131,0.322558,1.210781,2.631628,778.92,15.00,highres
18.637325,9800272494,0.640895,0.000874,-9.749022,0.000377,0.002058,0.000436,0.322558,1.210781,2.631628,778.92,15.00,highres
18.654873,9800282685,0.633253,0.009502,-9.747365,0.000569,0.000906,0.000368,0.322558,1.210781,2.631628,778.92,15.00,highres
18.656628,9800289528,0.646366,0.003865,-9.754651,-0.000158,0.001377,0.001282,0.311811,1.209187,2.632801,778.92,15.00,highres
18.673852,9800301600,0.654294,0.002825,-9.749254,-0.000721,0.000521,-0.000373,0.311811,1.209187,2.632801,778.92,15.00,highres
18.679444,9800311552,0.641185,-0.003334,-9.743954,0.001069,0.002246,0.000610,0.321261,1.213777,2.642072,778.92,15.00,highres
18.696517,9800323929,0.650476,0.002169,-9.755643,-0.000015,0.001826,0.000531,0.321261,1.213777,2.642072,778.92,15.00,highres
18.697087,9800331984,0.640429,-0.001766,-9.738334,-0.000061,0.001024,0.000003,0.321261,1.213777,2.642072,778.92,15.00,highres
18.714712,9800341978,0.638000,0.005040,-9.745753,-0.000055,0.001830,0.000922,0.321261,1.213777,2.642072,778.92,15.00,highres
18.719973,9800354954,0.642704,0.000175,-9.744532,-0.000282,0.001292,0.000474,0.321261,1.213777,2.642072,778.92,15.00,highres
18.735059,9800364167,0.644857,-0.003161,-9.761364,0.000195,0.001024,0.000313,0.321261,1.213777,2.642072,778.92,15.00,highres
