t_wall_s,t_boot_us,ax,ay,az,gx,gy,gz,mx,my,mz,abs_pressure,temperature,source
2.253759,66915810175,3.881539,-1.422401,-8.303220,-0.209863,0.470241,-0.146384,0.332839,1.147264,2.697554,782.08,42.00,highres
2.253759,66915832213,3.021330,-1.244002,-5.605580,-0.088260,0.162137,-0.060179,0.332839,1.147264,2.697554,782.08,42.00,highres
2.253759,66915858473,3.635575,-0.763761,-7.561934,0.188324,-0.533790,0.140469,0.332839,1.147264,2.697554,782.08,42.00,highres
2.253759,66915874764,3.409048,-1.851265,-8.779243,0.032251,-0.394546,0.164225,0.332839,1.147264,2.697554,782.08,42.00,highres
2.253759,66915897739,4.419978,-1.850204,-9.286152,0.167502,-0.136140,0.065085,0.318891,1.141261,2.704348,782.07,42.00,highres
2.253759,66915912270,4.400331,-1.989764,-9.515141,0.263904,-0.105116,0.017401,0.328352,1.158695,2.699318,782.07,42.00,highres
2.253759,66915935875,4.007699,-2.174109,-10.015509,0.054546,-0.095545,-0.016942,0.328352,1.158695,2.699318,782.07,42.00,highres
2.253759,66915952298,3.607684,-2.047843,-9.681553,-0.089538,0.032165,-0.023600,0.328352,1.158695,2.699318,782.07,42.00,highres
2.254212,66915969708,3.459628,-1.810344,-8.958347,-0.099117,0.114594,-0.029294,0.328352,1.158695,2.699318,782.08,42.00,highres
2.254212,66915995266,3.721343,-1.584480,-8.195147,-0.040155,0.031831,0.022191,0.328352,1.158695,2.699318,782.08,42.00,highres
2.254212,66916013263,3.902490,-1.622093,-8.281115,0.035971,-0.041291,0.018884,0.328352,1.158695,2.699318,782.08,42.00,highres
2.254212,66916030436,3.917205,-1.698770,-8.588420,0.093835,-0.064593,0.005612,0.323094,1.146786,2.699171,782.08,42.00,highres
2.254212,66916052718,3.876024,-1.885620,-9.020761,0.055824,-0.066363,0.004879,0.321728,1.141839,2.697729,782.07,42.00,highres
2.254212,66916068051,3.880028,-1.895322,-9.039047,-0.011667,-0.054680,-0.006633,0.321728,1.141839,2.697729,782.07,42.00,highres
2.254212,66916092288,3.813174,-1.654897,-8.892963,-0.009999,-0.028480,-0.026299,0.321728,1.141839,2.697729,782.07,42.00,highres
2.254212,66916108204,3.651108,-1.539089,-8.829744,0.017733,-0.021593,-0.027481,0.321728,1.141839,2.697729,782.07,42.00,highres
2.254351,66916126545,3.568407,-1.536544,-8.758846,0.015282,-0.029827,-0.007567,0.321728,1.141839,2.697729,782.07,42.00,highres
2.254351,66916148425,3.563961,-1.602099,-8.797921,0.029026,-0.054414,0.020761,0.321728,1.141839,2.697729,782.07,42.00,highres
2.254351,66916165528,3.604666,-1.684868,-8.951641,0.060016,-0.056851,0.039030,0.316698,1.145412,2.698662,782.07,42.00,highres
2.254351,66916192525,3.718941,-1.843370,-9.187003,0.030553,-0.039601,0.060895,0.316438,1.149631,2.688333,782.07,42.00,highres
2.254351,66916207380,3.872464,-1.932037,-9.106527,-0.004344,-0.009418,0.066957,0.316438,1.149631,2.688333,782.08,42.00,highres
2.254351,66916228245,3.940806,-1.970583,-8.824314,0.005813,0.025304,0.038171,0.316438,1.149631,2.688333,782.08,42.00,highres
2.254351,66916250397,3.838641,-1.926788,-8.671482,0.041642,0.021971,-0.002624,0.316438,1.149631,2.688333,782.08,42.00,highres
2.254351,66916266427,3.683275,-1.886120,-8.749740,0.041650,-0.004518,-0.014710,0.316438,1.149631,2.688333,782.08,42.00,highres
2.254351,66916287667,3.636033,-1.881342,-8.876463,-0.015126,-0.026820,0.002623,0.316438,1.149631,2.688333,782.07,42.15,highres
2.254465,66916306537,3.677556,-1.871850,-8.875278,-0.019045,-0.019927,0.009337,0.323174,1.146417,2.693924,782.07,42.15,highres
2.254465,66916331121,3.748983,-1.853759,-8.809495,0.025783,0.001143,0.004542,0.326148,1.157056,2.692205,782.07,42.15,highres
2.254465,66916348188,3.797017,-1.898788,-8.923800,0.039072,-0.001027,-0.001346,0.326148,1.157056,2.692205,782.07,42.15,highres
2.254465,66916362771,3.874231,-1.802561,-8.810211,-0.000294,0.001945,-0.006960,0.326148,1.157056,2.692205,782.07,42.30,highres
2.254465,66916383125,3.752727,-1.816192,-8.831627,-0.010680,-0.014708,-0.012531,0.326148,1.157056,2.692205,782.07,42.30,highres
2.254465,66916400790,3.605355,-1.805238,-8.901823,-0.017061,-0.022730,-0.018029,0.326148,1.157056,2.692205,782.07,42.30,highres
2.254465,66916422601,3.601185,-1.613749,-8.638657,-0.043622,-0.011836,-0.005156,0.326148,1.157056,2.692205,782.07,42.30,highres
2.254465,66916442538,3.725519,-1.832798,-8.737669,0.037473,-0.020612,0.025534,0.326371,1.148181,2.695163,782.07,42.30,highres
2.254465,66916462781,3.793529,-1.895883,-8.979513,0.067237,-0.038760,0.011676,0.328747,1.148718,2.689831,782.07,42.30,highres
2.254552,66916487194,3.712779,-1.837030,-9.074986,0.009007,-0.039643,0.000408,0.328747,1.148718,2.689831,782.07,42.30,highres
2.254552,66916503120,3.612027,-1.922856,-9.278543,-0.000601,-0.035783,-0.003979,0.328747,1.148718,2.689831,782.07,42.30,highres
2.254552,66916523665,3.577958,-1.963429,-9.281716,-0.025762,0.005870,-0.002968,0.328747,1.148718,2.689831,782.06,42.30,highres
2.254552,66916543036,3.585587,-1.874530,-9.129015,-0.005473,0.073877,-0.015022,0.328747,1.148718,2.689831,782.06,42.30,highres
2.254552,66916558123,3.716547,-1.816191,-8.877078,-0.000295,0.100134,-0.010087,0.328747,1.148718,2.689831,782.06,42.30,highres
2.254552,66916577720,3.977193,-1.938894,-8.614329,-0.049164,0.094942,0.014958,0.324097,1.148566,2.688478,782.06,42.30,highres
2.254552,66916598091,3.955548,-1.762647,-8.462217,-0.068003,0.064105,-0.010193,0.323677,1.149439,2.694481,782.06,42.30,highres
2.254552,66916613750,3.814518,-1.653904,-8.367347,-0.054263,0.049028,-0.042867,0.323677,1.149439,2.694481,782.06,42.30,highres
2.254552,66916638316,3.630675,-1.684516,-8.515311,0.024517,-0.007136,-0.039470,0.323677,1.149439,2.694481,782.06,42.30,highres
2.254640,66916658676,3.588099,-1.710488,-8.759494,0.023243,-0.045783,-0.023986,0.323677,1.149439,2.694481,782.06,42.30,highres
2.254640,66916696449,3.724491,-1.817010,-9.114792,0.036988,-0.064594,0.010499,0.323677,1.149439,2.694481,782.06,42.30,highres
2.254640,66916710733,3.864605,-1.992786,-9.356815,0.033245,-0.039801,-0.001999,0.323677,1.149439,2.694481,782.06,42.30,highres
2.254640,66916734029,3.793086,-1.901850,-9.427228,-0.019308,0.040880,-0.047132,0.323544,1.148040,2.693485,782.06,42.30,highres
2.254640,66916749487,3.677855,-1.712811,-9.012562,-0.037534,0.081430,-0.040850,0.329372,1.142447,2.683103,782.06,42.30,highres
2.254640,66916776159,3.659935,-1.819687,-8.703282,-0.000557,0.086307,-0.019187,0.329372,1.142447,2.683103,782.07,42.30,highres
2.254640,66916793935,3.739480,-1.946705,-8.669397,0.010253,0.061801,-0.025446,0.329372,1.142447,2.683103,782.07,42.30,highres
2.254640,66916813640,3.799494,-1.869724,-8.785611,-0.011360,0.046990,-0.035764,0.329372,1.142447,2.683103,782.07,42.30,highres
2.254732,66916836154,3.914246,-1.794242,-8.677126,-0.017754,0.040202,-0.016010,0.329372,1.142447,2.683103,782.07,42.30,highres
2.254732,66916858796,4.025381,-1.945527,-8.694901,-0.004969,0.023848,-0.042180,0.329372,1.142447,2.683103,782.07,42.30,highres
2.254732,66916873290,3.980060,-1.838863,-8.655626,-0.010511,0.013376,-0.080053,0.326857,1.151838,2.695070,782.07,42.30,highres
2.254732,66916893328,3.911412,-1.679045,-8.707883,0.006925,-0.007321,-0.091694,0.319603,1.131614,2.697186,782.07,42.30,highres
2.254732,66916910983,3.732937,-1.620494,-8.812870,-0.010924,-0.024604,-0.077387,0.319603,1.131614,2.697186,782.07,42.30,highres
2.254732,66916931082,3.607472,-1.580011,-8.825341,-0.033749,-0.034124,-0.044873,0.319603,1.131614,2.697186,782.07,42.30,highres
2.254732,66916956263,3.704161,-1.769848,-8.921439,0.039337,-0.003878,-0.035463,0.319603,1.131614,2.697186,782.07,42.30,highres
2.254732,66916970705,3.752581,-1.700214,-8.960624,0.056086,0.023870,-0.053154,0.319603,1.131614,2.697186,782.07,42.30,highres
2.254732,66916994113,3.768263,-1.519150,-8.841533,0.019465,0.021588,-0.016531,0.319603,1.131614,2.697186,782.07,42.30,highres
2.254816,66917014142,3.752371,-1.639264,-8.751976,-0.018712,-0.005255,0.011629,0.314830,1.142586,2.695407,782.07,42.30,highres
2.254816,66917036340,3.714958,-1.726738,-8.817004,-0.032490,-0.020816,0.015579,0.320115,1.141275,2.692678,782.07,42.30,highres
2.254816,66917051237,3.758945,-1.786140,-8.881941,0.006335,-0.008033,0.018392,0.320115,1.141275,2.692678,782.07,42.30,highres
2.254816,66917071229,3.863642,-1.838043,-8.864376,0.044726,0.027348,0.001787,0.320115,1.141275,2.692678,782.07,42.30,highres
2.254816,66917093837,3.887700,-1.818463,-8.789327,0.038726,0.017654,0.001885,0.320115,1.141275,2.692678,782.06,42.30,highres
2.254816,66917114060,3.953339,-1.933001,-8.815368,0.002735,-0.002185,-0.000160,0.320115,1.141275,2.692678,782.06,42.30,highres
2.254816,66917134066,4.024682,-2.021697,-8.800954,-0.000859,0.009050,-0.036029,0.320115,1.141275,2.692678,782.06,42.30,highres
2.254816,66917153677,3.937073,-1.856992,-8.755622,0.015743,0.010800,-0.073770,0.313275,1.141871,2.699281,782.05,42.30,highres
2.254905,66917173820,3.905007,-1.787147,-8.701286,0.004182,-0.012476,-0.069026,0.316785,1.145853,2.694507,782.05,42.30,highres
2.254905,66917194147,3.791646,-1.685370,-8.655022,0.002134,-0.042186,-0.067975,0.316785,1.145853,2.694507,782.05,42.30,highres
2.254905,66917214438,3.723446,-1.703856,-8.768814,0.034434,-0.048323,-0.057142,0.316785,1.145853,2.694507,782.05,42.30,highres
2.254905,66917234211,3.708500,-1.774453,-9.018895,0.021463,-0.037685,-0.052966,0.316785,1.145853,2.694507,782.05,42.30,highres
2.254905,66917251265,3.705508,-1.674141,-9.017834,-0.010492,-0.019603,-0.040058,0.316785,1.145853,2.694507,782.06,42.30,highres
2.254905,66917271553,3.761407,-1.639965,-8.879501,0.001773,-0.003939,-0.018084,0.316785,1.145853,2.694507,782.06,42.30,highres
2.254905,66917291817,3.767667,-1.737758,-8.896495,0.026868,0.008359,-0.020915,0.304200,1.140668,2.695919,782.06,42.30,highres
2.254905,66917313966,3.735870,-1.656664,-8.833838,-0.007601,0.011842,-0.019157,0.309153,1.137354,2.701388,782.06,42.30,highres
2.254905,66917328917,3.722549,-1.568620,-8.729564,-0.018314,0.000564,0.003046,0.309153,1.137354,2.701388,782.07,42.30,highres
2.254989,66917356294,3.897574,-1.908887,-8.836482,0.049978,-0.006706,0.004398,0.309153,1.137354,2.701388,782.07,42.30,highres
2.254989,66917376891,3.840673,-1.836144,-8.870809,0.036210,0.014193,-0.029119,0.309153,1.137354,2.701388,782.07,42.30,highres
2.254989,66917396500,3.862415,-1.741446,-8.807921,0.030059,0.003097,-0.014090,0.309153,1.137354,2.701388,782.07,42.30,highres
2.254989,66917411575,3.896507,-1.881881,-8.881845,0.006575,-0.012586,-0.011227,0.309153,1.137354,2.701388,782.07,42.30,highres
2.254989,66917431553,3.899774,-1.894282,-8.868009,-0.041833,-0.013697,-0.034277,0.315553,1.135676,2.694146,782.07,42.30,highres
2.254989,66917454613,3.849794,-1.763594,-8.786032,0.005484,-0.004527,-0.047869,0.302171,1.140622,2.706474,782.07,42.30,highres
2.254989,66917476889,3.854489,-1.809072,-8.806162,0.039974,0.004454,-0.052062,0.302171,1.140622,2.706474,782.07,42.30,highres
2.254989,66917491374,3.886953,-1.909666,-8.806654,0.035307,0.000550,-0.065520,0.302171,1.140622,2.706474,782.08,42.30,highres
2.254989,66917514101,3.735224,-1.623845,-8.791818,-0.033536,-0.013668,-0.073075,0.302171,1.140622,2.706474,782.08,42.30,highres
2.255069,66917534460,3.767201,-1.564820,-8.691569,-0.043091,-0.051646,-0.007308,0.302171,1.140622,2.706474,782.08,42.30,highres
2.255069,66917556562,3.723382,-1.768321,-8.810177,0.018337,-0.042892,-0.021419,0.302171,1.140622,2.706474,782.08,42.30,highres
2.255069,66917575718,3.678983,-1.626997,-8.873235,0.050487,-0.004549,-0.034748,0.306447,1.138022,2.697304,782.08,42.30,highres
2.255069,66917589794,3.620866,-1.554238,-8.896996,0.038496,-0.003712,-0.005812,0.310699,1.127821,2.705004,782.08,42.30,highres
2.255069,66917604920,3.743463,-1.675809,-8.910502,0.010258,-0.015339,0.022544,0.310699,1.127821,2.705004,782.08,42.30,highres
2.255069,66917631765,3.894189,-1.869019,-9.123637,-0.001821,-0.010431,0.003046,0.310699,1.127821,2.705004,782.08,42.30,highres
2.255069,66917654483,3.865335,-1.804591,-9.034406,-0.027620,0.042227,-0.014669,0.310699,1.127821,2.705004,782.08,42.30,highres
2.255069,66917674431,3.845295,-1.779405,-8.700747,0.004419,0.055154,-0.018111,0.310699,1.127821,2.705004,782.08,42.30,highres
2.255151,66917692063,3.768855,-1.789904,-8.661089,0.018178,0.033542,-0.028565,0.310699,1.127821,2.705004,782.08,42.30,highres
2.255151,66917714645,3.737917,-1.669233,-8.626646,-0.040764,-0.000915,-0.001287,0.302837,1.136379,2.696143,782.08,42.30,highres
2.255151,66917729395,3.825815,-1.653105,-8.582452,-0.037898,-0.019265,0.018508,0.302837,1.136379,2.696143,782.08,42.30,highres
2.255151,66917754061,3.918531,-1.848940,-8.695730,0.053405,-0.035111,-0.001932,0.302610,1.130572,2.703357,782.08,42.30,highres
2.255151,66917771757,3.927035,-1.894591,-8.929114,0.076907,-0.023580,-0.035116,0.302610,1.130572,2.703357,782.08,42.30,highres
2.255151,66917794425,3.820800,-1.820420,-9.041420,0.023172,-0.005541,-0.050061,0.302610,1.130572,2.703357,782.08,42.30,highres
2.255151,66917814966,3.742157,-1.657597,-8.945559,-0.039934,-0.015227,-0.029672,0.302610,1.130572,2.703357,782.08,42.30,highres
2.255151,66917834485,3.708952,-1.644209,-8.831649,-0.055430,-0.020819,-0.000167,0.302610,1.130572,2.703357,782.08,42.30,highres
2.255240,66917854469,3.713234,-1.699901,-8.820854,0.004013,0.002444,-0.006228,0.300978,1.132583,2.701403,782.08,42.30,highres
2.255240,66917877667,3.688539,-1.578407,-8.783164,0.031299,0.024755,-0.004918,0.297753,1.135611,2.703880,782.08,42.30,highres
2.255240,66917892431,3.725260,-1.634110,-8.758482,0.032878,0.000587,0.020427,0.297753,1.135611,2.703880,782.07,42.30,highres
2.255240,66917909878,3.828125,-1.771143,-8.980207,0.012339,-0.025291,0.030046,0.297753,1.135611,2.703880,782.07,42.30,highres
2.255240,66917932302,3.868548,-1.851066,-8.974978,-0.030809,0.002556,0.013530,0.297753,1.135611,2.703880,782.07,42.30,highres
2.255240,66917953411,3.912004,-1.907153,-8.905525,0.019849,0.039154,-0.006271,0.297753,1.135611,2.703880,782.07,42.30,highres
2.255240,66917974095,3.910742,-1.896694,-8.742926,-0.010256,0.039779,-0.029809,0.297753,1.135611,2.703880,782.07,42.30,highres
2.255240,66917996931,3.944468,-1.828529,-8.617212,-0.007334,-0.005128,-0.048145,0.303585,1.134836,2.695227,782.07,42.30,highres
2.255240,66918011947,3.865664,-1.727287,-8.699553,-0.004304,-0.026696,-0.057298,0.306674,1.139373,2.698716,782.07,42.30,highres
2.255306,66918034469,3.786943,-1.701407,-8.750936,-0.000949,-0.037050,-0.041514,0.306674,1.139373,2.698716,782.07,42.30,highres
2.257916,66918055749,3.780159,-1.752373,-8.815650,0.025859,-0.033489,-0.041395,0.306674,1.139373,2.698716,782.06,42.30,highres
2.257916,66918076989,3.837552,-1.932019,-8.927155,0.056392,-0.017761,-0.053275,0.306674,1.139373,2.698716,782.06,42.30,highres
2.300911,66918092542,4.112888,-2.149176,-9.188544,0.063430,0.008741,-0.090836,0.306674,1.139373,2.698716,782.06,42.30,highres
2.306391,66918112104,3.770198,-1.733121,-8.893085,-0.037786,0.028808,-0.133950,0.306674,1.139373,2.698716,782.06,42.30,highres
2.339162,66918132560,3.810035,-1.479115,-8.717699,-0.064965,-0.013331,-0.052741,0.295242,1.130843,2.698153,782.07,42.30,highres
2.358364,66918152406,3.724756,-1.707592,-8.562845,-0.030997,-0.047632,-0.040945,0.295696,1.128193,2.691206,782.07,42.30,highres
2.367873,66918172287,3.776130,-1.797866,-8.707636,0.025999,-0.030085,-0.080809,0.295696,1.128193,2.691206,782.07,42.30,highres
2.399543,66918192198,3.731184,-1.561274,-8.781363,0.077287,0.005149,-0.097748,0.295696,1.128193,2.691206,782.07,42.30,highres
2.407190,66918209762,3.826145,-1.584975,-8.903210,0.078920,-0.000119,-0.068415,0.295696,1.128193,2.691206,782.07,42.30,highres
2.438583,66918236056,3.671367,-1.598400,-8.843946,-0.018866,-0.061817,-0.021925,0.295696,1.128193,2.691206,782.07,42.30,highres
2.451477,66918247790,3.743155,-1.623520,-8.936979,-0.029309,-0.073347,-0.003370,0.295696,1.128193,2.691206,782.07,42.30,highres
2.467778,66918274728,3.849867,-1.865976,-9.082055,0.062075,-0.009949,-0.042516,0.288720,1.134047,2.702624,782.07,42.30,highres
2.500720,66918292192,3.778370,-1.756913,-9.193159,0.045725,0.045464,-0.071786,0.278128,1.133338,2.711535,782.07,42.30,highres
2.506786,66918317643,3.695344,-1.586856,-8.772904,-0.029823,0.042701,-0.010063,0.278128,1.133338,2.711535,782.07,42.30,highres
2.533864,66918332573,3.807795,-1.782728,-8.725103,-0.036029,0.010647,0.006404,0.278128,1.133338,2.711535,782.07,42.30,highres
2.554154,66918355335,3.910594,-1.724301,-8.701241,-0.012249,0.011543,-0.034750,0.278128,1.133338,2.711535,782.07,42.30,highres
2.569877,66918367531,3.898771,-1.682176,-8.673630,0.016200,0.012174,-0.041548,0.278128,1.133338,2.711535,782.07,42.30,highres
2.601450,66918392344,3.792985,-1.626574,-8.680811,0.034308,-0.014174,-0.028596,0.278128,1.133338,2.711535,782.07,42.30,highres
2.607380,66918415821,3.772830,-1.774163,-8.821187,0.011534,-0.047575,-0.010700,0.289482,1.125403,2.700855,782.07,42.30,highres
2.630599,66918429990,3.788642,-1.779137,-8.996833,-0.003653,-0.035474,-0.018336,0.288826,1.114946,2.698303,782.07,42.30,highres
2.650129,66918450049,3.784744,-1.663748,-9.039344,-0.015459,-0.001247,-0.017295,0.288826,1.114946,2.698303,782.07,42.30,highres
2.668407,66918472682,3.885658,-1.746056,-8.919377,0.002844,0.014951,-0.008617,0.288826,1.114946,2.698303,782.07,42.30,highres
2.695182,66918492605,3.911236,-1.891967,-8.875228,0.038533,0.023733,-0.050521,0.288826,1.114946,2.698303,782.07,42.30,highres
2.707315,66918515572,3.965630,-1.872033,-9.042769,0.011648,0.039757,-0.086363,0.288826,1.114946,2.698303,782.07,42.30,highres
2.736509,66918530070,3.824553,-1.776743,-8.810093,-0.048551,0.041801,-0.083698,0.288826,1.114946,2.698303,782.07,42.30,highres
2.761279,66918552384,3.934040,-1.700463,-8.522038,-0.042184,0.009506,-0.051322,0.287315,1.126246,2.705041,782.07,42.30,highres
2.776009,66918573341,4.134889,-1.998346,-8.704306,0.048920,-0.008137,-0.104732,0.281371,1.119281,2.700856,782.07,42.30,highres
2.799312,66918592678,3.966084,-1.710082,-8.686110,0.029948,-0.015609,-0.185094,0.281371,1.119281,2.700856,782.07,42.30,highres
2.808653,66918604494,3.779697,-1.466373,-8.704966,0.027562,-0.032605,-0.178012,0.281371,1.119281,2.700856,782.07,42.30,highres
2.828633,66918629824,3.603100,-1.523512,-8.736962,-0.023477,-0.080232,-0.082182,0.281371,1.119281,2.700856,782.07,42.30,highres
2.859181,66918649470,3.670134,-1.520574,-8.686797,-0.050689,-0.098698,-0.053155,0.281371,1.119281,2.700856,782.07,42.30,highres
2.866486,66918673187,3.802819,-1.529646,-8.656915,-0.021539,-0.130621,-0.061048,0.281371,1.119281,2.700856,782.07,42.30,highres
2.899865,66918687838,3.778523,-1.554441,-8.925696,0.080772,-0.128074,-0.051887,0.281230,1.116092,2.699794,782.07,42.30,highres
2.907256,66918707813,3.757838,-1.870624,-9.315144,0.094051,-0.042745,-0.075157,0.281230,1.116092,2.699794,782.07,42.30,highres
2.931206,66918732890,3.725906,-1.687835,-9.215276,-0.005318,0.008328,-0.101599,0.277608,1.115235,2.709877,782.07,42.30,highres
2.950628,66918758227,3.754917,-1.669304,-8.907189,-0.049642,0.024329,-0.047794,0.277608,1.115235,2.709877,782.07,42.30,highres
2.966569,66918772961,4.057076,-2.065327,-8.879170,0.022537,0.034413,-0.078870,0.277608,1.115235,2.709877,782.08,42.30,highres
3.000652,66918790185,4.343314,-2.398838,-9.045153,0.091729,0.079953,-0.214193,0.277608,1.115235,2.709877,782.08,42.30,highres
3.007997,66918806717,4.202511,-1.960314,-8.998126,0.064533,0.113787,-0.313394,0.277608,1.115235,2.709877,782.08,42.30,highres
3.029014,66918828313,4.150171,-1.811535,-8.453482,-0.031493,0.078419,-0.290509,0.270780,1.109666,2.701987,782.08,42.30,highres
3.052163,66918853259,4.233944,-2.268730,-8.395914,0.014674,-0.029364,-0.330793,0.268108,1.101338,2.714227,782.08,42.30,highres
3.068369,66918871774,4.125012,-1.929965,-8.608987,0.058046,-0.064793,-0.464573,0.268108,1.101338,2.714227,782.08,42.30,highres
3.095127,66918888014,3.996734,-1.617010,-8.658850,0.077715,-0.068154,-0.501297,0.268108,1.101338,2.714227,782.08,42.30,highres
3.106869,66918908730,3.906647,-1.517561,-8.857062,0.142957,-0.053799,-0.496337,0.268108,1.101338,2.714227,782.08,42.30,highres
3.128472,66918924309,3.713439,-1.266145,-8.722721,0.086010,-0.051813,-0.486384,0.268108,1.101338,2.714227,782.08,42.30,highres
3.151159,66918948501,3.652280,-1.188739,-8.504391,0.055291,-0.117660,-0.405824,0.268108,1.101338,2.714227,782.08,42.30,highres
3.167325,66918973205,3.659361,-1.374534,-8.807699,0.116486,-0.187068,-0.373859,0.238799,1.090698,2.715940,782.08,42.30,highres
3.194266,66918993939,3.891589,-1.781531,-9.258987,0.100787,-0.185752,-0.370501,0.217929,1.086116,2.724695,782.08,42.30,highres
3.207482,66919007872,4.253217,-1.974237,-9.923980,0.175033,-0.116717,-0.403789,0.217929,1.086116,2.724695,782.08,42.30,highres
3.231903,66919028130,4.540389,-1.983832,-9.978414,0.120548,0.027403,-0.519508,0.217929,1.086116,2.724695,782.08,42.30,highres
3.252228,66919048588,4.503397,-1.955729,-9.592433,0.092891,0.137391,-0.593345,0.217929,1.086116,2.724695,782.08,42.30,highres
3.265886,66919068657,4.343814,-2.108840,-8.942418,0.057432,0.132965,-0.641000,0.217929,1.086116,2.724695,782.08,42.30,highres
3.265886,66919088501,3.755397,-1.402068,-8.367058,-0.010678,0.092814,-0.723579,0.217929,1.086116,2.724695,782.08,42.30,highres
3.310716,66919103430,3.532777,-0.911831,-8.081427,-0.036220,0.056240,-0.692002,0.206113,1.064135,2.730599,782.08,42.30,highres
3.330005,66919124027,3.909885,-1.354061,-7.716475,0.032037,0.009689,-0.600363,0.169721,1.058037,2.751866,782.08,42.30,highres
3.353812,66919146867,3.999681,-1.352898,-8.021111,0.299433,-0.051242,-0.663589,0.169721,1.058037,2.751866,782.08,42.30,highres
3.367338,66919161800,3.658164,-0.966340,-8.340850,0.295376,-0.120393,-0.758025,0.169721,1.058037,2.751866,782.08,42.30,highres
3.395601,66919181665,3.929455,-0.919875,-9.315921,0.424942,-0.189157,-0.767784,0.169721,1.058037,2.751866,782.08,42.30,highres
3.407064,66919203222,4.397975,-1.358379,-9.275723,0.228377,-0.156327,-0.667336,0.169721,1.058037,2.751866,782.08,42.30,highres
3.428469,66919218159,4.026070,-1.494105,-9.056133,0.110091,-0.172425,-0.675872,0.169721,1.058037,2.751866,782.08,42.30,highres
3.461567,66919246651,3.897023,-1.127401,-8.680722,-0.063533,-0.403410,-0.802934,0.146211,1.032753,2.763976,782.08,42.30,highres
3.467391,66919264064,3.436251,-0.946764,-9.137076,0.016963,-0.508146,-0.829520,0.116892,1.019442,2.791154,782.08,42.30,highres
3.499884,66919287272,3.549777,-1.318670,-10.187342,0.113854,-0.362811,-0.757603,0.116892,1.019442,2.791154,782.08,42.30,highres
3.507650,66919304077,3.679711,-1.209341,-9.919757,-0.015626,-0.090228,-0.737826,0.116892,1.019442,2.791154,782.08,42.30,highres
3.529456,66919324070,3.513875,-0.690301,-8.964120,-0.078479,0.133122,-0.759927,0.116892,1.019442,2.791154,782.09,42.30,highres
3.552119,66919348429,3.367281,0.184024,-8.332470,-0.035275,0.156213,-0.686350,0.116892,1.019442,2.791154,782.09,42.30,highres
3.579447,66919364151,3.560225,-0.303842,-8.332049,0.048308,0.101730,-0.499741,0.116892,1.019442,2.791154,782.09,42.30,highres
3.599836,66919384216,3.623021,-0.789668,-8.603768,0.169834,0.041803,-0.412955,0.087812,1.002883,2.799463,782.09,42.30,highres
3.614321,66919408127,3.615958,-0.630066,-8.281415,0.040292,-0.052916,-0.510166,0.070744,0.992658,2.808705,782.08,42.30,highres
3.630842,66919431071,3.971791,-0.567723,-8.644898,0.178308,-0.181211,-0.578856,0.070744,0.992658,2.808705,782.08,42.30,highres
3.657629,66919447465,3.861823,-0.395412,-8.842244,0.302092,-0.206689,-0.607398,0.070744,0.992658,2.808705,782.08,42.30,highres
3.666956,66919469350,3.897996,-1.118541,-8.961344,0.325910,-0.214151,-0.607820,0.070744,0.992658,2.808705,782.08,42.30,highres
3.695200,66919492097,3.945804,-1.151730,-8.903310,0.281189,-0.245635,-0.648670,0.070744,0.992658,2.808705,782.09,42.30,highres
3.708599,66919501517,3.740727,-0.746949,-8.497965,0.178383,-0.309744,-0.677463,0.070744,0.992658,2.808705,782.09,42.30,highres
3.729000,66919521471,3.658900,-2.040470,-10.647874,0.208828,-0.417698,-0.650937,0.051639,0.990847,2.813494,782.09,42.30,highres
3.751167,66919556078,3.767421,-1.004358,-9.725418,-0.039134,-0.218677,-0.673734,0.033555,0.973509,2.831333,782.09,42.30,highres
3.776629,66919571396,3.562400,-0.278037,-10.074176,-0.164599,-0.040041,-0.606910,0.033555,0.973509,2.831333,782.08,42.30,highres
3.800004,66919592247,2.931555,0.132551,-9.920956,-0.187207,0.144128,-0.452053,0.033555,0.973509,2.831333,782.08,42.30,highres
3.815088,66919614524,3.188016,0.494585,-9.166191,-0.070527,0.255981,-0.241581,0.033555,0.973509,2.831333,782.08,42.30,highres
3.829650,66919634167,3.297915,-0.566944,-8.961906,0.173968,0.320607,-0.239849,0.033555,0.973509,2.831333,782.08,42.30,highres
3.850696,66919652189,3.791924,-1.540864,-10.208995,0.011355,0.341225,-0.337823,0.033555,0.973509,2.831333,782.07,42.30,highres
3.867426,66919671621,5.076667,-1.123154,-9.926940,-0.285870,0.422981,-0.425784,0.016153,0.962857,2.838274,782.07,42.30,highres
3.900346,66919694576,5.412257,-0.469835,-10.382386,-0.137036,0.573808,-0.394030,0.000412,0.946865,2.832225,782.07,42.30,highres
3.907479,66919711939,4.982010,-0.495175,-10.482882,-0.045517,0.747525,-0.329333,0.000412,0.946865,2.832225,782.07,42.30,highres
3.930200,66919732320,3.922373,-0.423258,-10.455297,-0.159669,0.762299,-0.277890,0.000412,0.946865,2.832225,782.07,42.30,highres
3.950390,66919756380,3.563846,-0.109711,-9.594057,-0.043317,0.586697,-0.187312,0.000412,0.946865,2.832225,782.07,42.30,highres
3.967117,66919774549,4.359983,-0.650957,-9.463681,-0.171702,0.608718,-0.247773,0.000412,0.946865,2.832225,782.07,42.30,highres
3.999325,66919796462,4.557974,-1.134575,-7.168856,-0.259350,0.743687,-0.382949,0.000412,0.946865,2.832225,782.07,42.30,highres
4.007777,66919812363,3.966865,-0.120304,-7.329262,0.173532,0.757009,-0.384079,0.008715,0.989483,2.812036,782.08,42.30,highres
4.031413,66919832799,4.769122,-0.501004,-7.594169,0.528202,0.638947,-0.660163,0.036869,0.998280,2.777464,782.08,42.30,highres
4.053107,66919852511,5.480374,-0.049992,-7.998952,0.761526,0.659476,-0.905804,0.036869,0.998280,2.777464,782.08,42.30,highres
4.075560,66919871622,5.292550,0.801620,-9.757379,0.453175,0.872049,-0.782404,0.036869,0.998280,2.777464,782.08,42.30,highres
4.099743,66919892085,4.735730,0.553856,-7.747211,-0.397822,0.985529,-0.309316,0.036869,0.998280,2.777464,782.08,42.30,highres
4.107080,66919912176,4.680444,1.111737,-6.421980,-0.308414,0.765398,0.231803,0.036869,0.998280,2.777464,782.08,42.30,highres
4.130997,66919934625,4.658127,0.812438,-6.310673,-0.137341,0.374444,0.727606,0.036869,0.998280,2.777464,782.08,42.30,highres
4.150659,66919953942,4.235142,-0.345072,-6.200526,0.167131,-0.013187,0.679872,0.023226,1.011593,2.744514,782.08,42.30,highres
4.167002,66919971298,4.902542,-0.781794,-7.955490,0.518307,-0.209164,0.470330,0.032481,1.038731,2.710412,782.09,42.30,highres
4.200993,66919991866,6.292429,-0.594520,-8.107119,0.086777,-0.382134,0.042741,0.032481,1.038731,2.710412,782.09,42.30,highres
4.206877,66920009169,5.430154,0.063624,-7.255483,0.240318,-0.461970,-0.177696,0.032481,1.038731,2.710412,782.09,42.30,highres
4.237741,66920028972,4.922248,0.392311,-8.191219,0.923040,-0.095037,0.003674,0.032481,1.038731,2.710412,782.09,42.30,highres
4.252432,66920046987,5.581566,-0.496051,-8.935303,1.081871,0.156912,0.158375,0.032481,1.038731,2.710412,782.08,42.30,highres
4.263430,66920067000,5.994022,-0.905681,-9.123379,0.776765,0.283318,0.061396,0.032481,1.038731,2.710412,782.08,42.30,highres
4.263430,66920094201,5.019318,-0.188463,-8.167983,0.419035,0.358763,0.148004,0.047398,1.030341,2.704252,782.08,42.30,highres
4.306955,66920108999,5.626633,-1.144240,-7.595266,0.471024,0.333723,0.331218,0.051465,1.036079,2.688597,782.08,42.30,highres
4.331807,66920131700,5.743692,-0.679679,-7.371021,0.200383,0.224048,0.387110,0.051465,1.036079,2.688597,782.08,42.30,highres
4.357453,66920146607,5.169484,-1.138568,-6.839511,-0.091151,-0.004656,0.400570,0.051465,1.036079,2.688597,782.08,42.30,highres
4.377397,66920170232,5.583150,-2.072911,-6.788093,-0.209555,-0.381513,0.357975,0.051465,1.036079,2.688597,782.08,42.30,highres
4.399925,66920191515,5.656957,-2.388495,-9.067359,-0.327547,-0.603153,0.120278,0.051465,1.036079,2.688597,782.08,42.30,highres
4.417781,66920211721,5.324983,-1.925853,-10.456551,-0.289823,-0.282263,-0.159146,0.051465,1.036079,2.688597,782.09,42.30,highres
4.428072,66920226747,4.739690,-2.979278,-10.607715,-0.147799,0.089142,-0.321939,0.061217,1.047527,2.667498,782.09,42.30,highres
4.458535,66920242103,5.538741,-1.783993,-10.442993,0.045542,0.435331,-0.548729,0.060084,1.039902,2.676845,782.09,42.30,highres
4.468592,66920264484,6.374899,-0.802171,-8.649603,-0.192310,0.912656,-0.634423,0.060084,1.039902,2.676845,782.09,42.30,highres
4.500442,66920280496,6.557520,-0.264072,-6.316808,-0.648449,1.051382,-0.603444,0.060084,1.039902,2.676845,782.08,42.50,highres
4.507028,66920312164,6.693925,0.047060,-4.569082,-0.398873,0.677999,-0.493327,0.060084,1.039902,2.676845,782.08,42.50,highres
4.539246,66920331993,7.219179,0.599699,-4.835704,0.169457,-0.327424,-0.233215,0.060084,1.039902,2.676845,782.08,42.50,highres
4.551556,66920351982,7.218665,0.687854,-6.726027,0.292068,-0.872142,-0.017312,0.060084,1.039902,2.676845,782.08,42.50,highres
4.567558,66920374579,6.117892,-0.932426,-8.267918,-0.102679,-0.928139,0.000299,0.063119,1.041351,2.658818,782.07,42.70,highres
4.599786,66920389736,5.254204,-1.888130,-8.481314,-0.331782,-0.747507,-0.205873,0.050655,1.038725,2.663326,782.07,42.70,highres
4.607562,66920417666,4.943955,-1.050293,-10.450669,-0.700922,-0.177453,-0.610941,0.050655,1.038725,2.663326,782.07,42.70,highres
4.631089,66920431887,4.415857,-0.355309,-11.123282,-1.032603,0.213775,-0.671056,0.050655,1.038725,2.663326,782.07,42.70,highres
4.652010,66920456327,4.333338,-0.059658,-10.414003,-1.669585,0.789175,-0.696100,0.050655,1.038725,2.663326,782.07,42.70,highres
4.668506,66920472169,5.271336,0.835353,-8.496687,-1.272641,0.973744,-0.683344,0.050655,1.038725,2.663326,782.07,42.70,highres
4.701365,66920497540,6.636426,3.151111,-6.320149,-0.187805,0.725785,-0.336418,0.050655,1.038725,2.663326,782.07,42.70,highres
4.706892,66920514435,6.365889,2.552985,-6.806231,0.161739,0.500103,0.006834,0.047586,1.032452,2.661507,782.07,42.70,highres
4.728858,66920532172,5.527083,0.923163,-7.248013,0.367680,0.419485,0.143230,0.042420,1.016781,2.656780,782.06,42.70,highres
4.752281,66920552441,5.741585,0.351796,-8.472453,0.684573,0.522563,0.136809,0.042420,1.016781,2.656780,782.06,42.70,highres
4.767620,66920575336,6.110598,0.003638,-9.042961,0.848150,0.801246,0.046495,0.042420,1.016781,2.656780,782.06,42.70,highres
4.797264,66920594784,6.632673,-0.783692,-8.536539,0.867568,0.903543,-0.100010,0.042420,1.016781,2.656780,782.06,42.70,highres
4.807137,66920613001,6.760203,-0.455890,-6.769337,0.563082,0.779040,-0.234276,0.042420,1.016781,2.656780,782.05,42.70,highres
4.828255,66920626069,7.777067,-0.158030,-4.654207,0.546438,0.443754,-0.284990,0.042420,1.016781,2.656780,782.05,42.70,highres
4.851286,66920647205,7.239735,1.140466,-4.795190,0.765124,-0.410849,-0.315232,0.061246,1.015778,2.618445,782.05,42.70,highres
4.872503,66920667586,5.599371,3.146597,-8.510517,0.672260,-0.974078,-0.003710,0.067583,1.005333,2.598449,782.05,42.70,highres
4.895440,66920697677,7.334675,1.236932,-9.897223,-0.360507,-0.765745,0.636907,0.067583,1.005333,2.598449,782.05,42.70,highres
4.914233,66920714809,7.684822,-0.792816,-7.815039,-0.706081,-0.581900,0.567286,0.067583,1.005333,2.598449,782.05,42.70,highres
4.928487,66920729734,7.078303,-1.742530,-6.762208,-0.690418,-0.631591,0.331925,0.067583,1.005333,2.598449,782.05,42.70,highres
4.959959,66920752536,6.345798,-0.530866,-7.631248,-0.283412,-0.767867,-0.085901,0.067583,1.005333,2.598449,782.05,42.70,highres
4.967977,66920767852,5.830603,2.277987,-10.311293,-0.021015,-0.653758,-0.041429,0.067583,1.005333,2.598449,782.06,42.70,highres
4.998965,66920788137,6.014980,4.414394,-12.229352,-0.271846,-0.028134,0.413818,0.065888,1.008471,2.606179,782.06,42.70,highres
5.007399,66920807591,7.329140,-1.718330,-8.552198,-0.690563,0.658785,0.899174,0.081984,1.025923,2.614213,782.06,42.70,highres
5.036768,66920822978,5.715573,-3.660561,-6.434709,-1.198721,0.806287,0.524555,0.081984,1.025923,2.614213,782.06,42.70,highres
5.052628,66920842443,5.188741,-1.418499,-3.397893,-1.936839,0.705230,-0.081616,0.081984,1.025923,2.614213,782.07,42.70,highres
5.079832,66920862744,6.323997,1.961594,-3.092997,-1.420533,0.179423,-0.301719,0.081984,1.025923,2.614213,782.07,42.70,highres
5.096503,66920888807,6.479987,1.593069,-6.337832,-0.088191,-0.569714,0.065911,0.081984,1.025923,2.614213,782.07,42.70,highres
5.107459,66920907721,6.420379,-0.040205,-8.659276,0.431300,-0.629213,0.280379,0.081984,1.025923,2.614213,782.07,42.70,highres
5.129574,66920922766,5.789967,-4.300402,-10.728509,0.692514,-0.336626,0.102825,0.084293,1.031038,2.609080,782.07,42.70,highres
5.151290,66920955794,4.857088,-0.582210,-8.046618,0.288351,0.487147,-0.842238,0.087048,1.035131,2.602500,782.07,42.70,highres
5.171462,66920977617,5.139281,4.194906,-6.531592,-0.392366,0.608627,-0.424608,0.087048,1.035131,2.602500,782.07,42.70,highres
5.196483,66920992855,6.122804,3.924751,-7.407703,-0.051586,0.572987,0.147103,0.087048,1.035131,2.602500,782.07,42.70,highres
5.214696,66921013070,6.734644,0.345572,-9.990792,0.588530,0.664752,0.472916,0.087048,1.035131,2.602500,782.06,42.70,highres
5.227977,66921033238,5.995079,-3.579864,-10.754899,0.521240,0.984024,0.034980,0.087048,1.035131,2.602500,782.06,42.70,highres
5.262205,66921052880,4.677487,-2.375093,-8.668128,0.379062,1.071346,-0.443832,0.087048,1.035131,2.602500,782.06,42.70,highres
5.267791,66921073079,3.870956,-0.189284,-5.822967,0.390254,0.946147,-0.671187,0.093150,1.029590,2.582866,782.06,42.70,highres
5.267791,66921095654,5.081918,-0.580698,-2.769761,-0.356965,0.378615,-0.584451,0.112851,1.020444,2.551108,782.06,42.70,highres
5.308618,66921113027,5.865411,-4.476432,-3.515019,-1.636101,-0.312924,-1.253087,0.112851,1.020444,2.551108,782.06,42.70,highres
5.333536,66921127677,4.827323,-1.914206,-2.417016,-1.392884,-1.381389,-1.939760,0.112851,1.020444,2.551108,782.06,42.70,highres
5.360020,66921153918,0.075997,2.707491,-9.049662,0.479848,-2.490771,-2.556316,0.112851,1.020444,2.551108,782.06,42.70,highres
5.367558,66921176398,0.568685,5.760817,-12.913118,0.550688,-1.366368,-1.414407,0.112851,1.020444,2.551108,782.06,42.70,highres
5.395312,66921192859,2.963850,4.660278,-13.822086,0.354575,-0.115832,-0.324119,0.112851,1.020444,2.551108,782.06,42.70,highres
5.406052,66921206847,5.077509,2.282579,-10.114976,-0.101066,0.756532,0.040303,0.084837,0.977880,2.584239,782.06,42.70,highres
5.428280,66921229929,6.415744,3.975510,-6.495116,-0.537855,1.062575,-0.178078,0.075611,0.955438,2.603897,782.06,42.70,highres
5.453476,66921246657,5.613100,5.842109,-4.827730,-1.124485,0.752035,0.092691,0.075611,0.955438,2.603897,782.05,42.70,highres
5.468212,66921268508,5.233151,3.335858,-2.370236,-0.447786,0.316632,1.037690,0.075611,0.955438,2.603897,782.05,42.70,highres
5.499110,66921288405,6.186698,0.411855,-5.615271,1.012546,0.090141,1.276380,0.075611,0.955438,2.603897,782.05,42.70,highres
5.507591,66921307840,7.034729,-0.501735,-7.954260,1.341791,0.134691,0.856729,0.075611,0.955438,2.603897,782.05,42.70,highres
5.533874,66921328955,6.862960,0.768806,-7.310261,0.531432,0.159940,0.517253,0.075611,0.955438,2.603897,782.05,42.70,highres
5.551926,66921347937,7.043774,3.240946,-6.927173,0.049911,0.126012,0.384701,0.073430,0.972280,2.597882,782.05,42.70,highres
5.567578,66921366853,6.556321,1.532476,-6.852654,0.019210,0.130339,0.597116,0.081979,0.989634,2.577752,782.05,42.70,highres
5.601282,66921388090,6.567402,2.115155,-5.951829,0.273611,0.238383,0.638915,0.081979,0.989634,2.577752,782.05,42.70,highres
5.607938,66921408162,7.158984,-0.062714,-6.352262,0.858105,0.133935,0.901885,0.081979,0.989634,2.577752,782.06,42.70,highres
5.628349,66921431064,8.098815,-2.969040,-7.663015,0.841344,-0.200684,0.378440,0.081979,0.989634,2.577752,782.06,42.70,highres
5.652836,66921454746,7.465117,-3.455858,-10.668815,0.928557,-0.469336,-0.110950,0.081979,0.989634,2.577752,782.06,42.70,highres
5.672459,66921475608,6.647171,-1.058364,-11.836120,0.537487,0.184314,-0.288661,0.081979,0.989634,2.577752,782.06,42.70,highres
5.703271,66921498781,5.814569,0.643633,-10.977580,-0.411178,0.785640,-0.124116,0.083896,0.989192,2.579388,782.05,42.70,highres
5.708998,66921508091,5.733725,0.557579,-7.949690,-0.626688,0.892359,0.022712,0.073499,0.979034,2.555733,782.05,42.70,highres
5.729932,66921527968,6.257664,-0.147814,-6.185058,-0.553669,0.619385,0.144582,0.073499,0.979034,2.555733,782.05,42.70,highres
5.761060,66921558062,6.896623,-0.537438,-6.836335,-0.458389,0.115151,-0.207452,0.073499,0.979034,2.555733,782.05,42.70,highres
5.766907,66921568299,6.790583,-0.274907,-7.322376,-0.341628,0.065773,-0.436008,0.073499,0.979034,2.555733,782.05,42.70,highres
5.799612,66921595829,6.325999,1.922355,-7.136220,-0.290647,0.231208,-0.446912,0.073499,0.979034,2.555733,782.05,42.70,highres
5.806638,66921610747,5.573339,1.837815,-5.958344,-0.043274,0.320227,-0.238309,0.073499,0.979034,2.555733,782.05,42.70,highres
5.835029,66921626481,5.717284,1.548073,-5.424700,0.322270,0.315354,0.003648,0.087592,0.989562,2.554558,782.05,42.70,highres
5.852499,66921653789,6.399847,0.805049,-6.275839,0.755591,0.056379,0.075814,0.089789,0.994348,2.554217,782.05,42.70,highres
5.876099,66921668607,6.299055,1.067504,-7.156053,0.745889,-0.009390,0.094661,0.089789,0.994348,2.554217,782.05,42.70,highres
5.901287,66921696574,6.071106,1.001073,-7.469901,0.748198,0.002233,0.247695,0.089789,0.994348,2.554217,782.05,42.70,highres
5.912096,66921713746,5.838531,0.331468,-7.914091,0.816570,0.175163,0.402968,0.089789,0.994348,2.554217,782.05,42.70,highres
5.928767,66921733789,6.621653,-0.117494,-7.690182,0.869254,0.511524,0.584562,0.089789,0.994348,2.554217,782.05,42.70,highres
5.960364,66921751627,7.241797,-1.322479,-6.802592,0.621896,0.466205,0.492054,0.089789,0.994348,2.554217,782.05,42.70,highres
5.967171,66921773598,8.369877,-1.953329,-6.194756,0.013328,0.056110,-0.043683,0.096121,0.985878,2.535892,782.05,42.70,highres
5.999809,66921793925,7.922815,-1.114845,-5.751401,-0.058305,-0.160094,-0.400229,0.112662,0.980080,2.520904,782.05,42.70,highres
6.007914,66921813816,7.167686,0.027796,-5.746098,0.072227,-0.213204,-0.456948,0.112662,0.980080,2.520904,782.05,42.70,highres
6.037233,66921836513,6.736190,-0.039571,-6.225226,0.023246,-0.299729,-0.473911,0.112662,0.980080,2.520904,782.05,42.70,highres
6.060713,66921851875,6.471671,0.667191,-6.331749,-0.102339,-0.478138,-0.460038,0.112662,0.980080,2.520904,782.05,42.70,highres
6.079147,66921873695,5.303322,1.032232,-7.329798,-0.445927,-0.752983,-0.304922,0.112662,0.980080,2.520904,782.05,42.70,highres
6.095339,66921894094,4.971348,0.969061,-9.299744,-0.269653,-0.488701,-0.093785,0.112662,0.980080,2.520904,782.06,42.70,highres
6.106853,66921917117,5.558024,0.745209,-9.596141,-0.114319,0.160515,0.027544,0.097161,0.965583,2.535866,782.06,42.70,highres
6.128654,66921934500,6.273587,0.820027,-7.865681,0.191401,0.482454,0.006326,0.091960,0.952302,2.542665,782.06,42.70,highres
6.151094,66921949052,6.606014,1.082973,-7.017546,0.381855,0.444247,-0.066253,0.091960,0.952302,2.542665,782.06,42.70,highres
6.167144,66921968572,6.586802,1.361396,-7.010618,0.477347,0.233750,-0.143484,0.091960,0.952302,2.542665,782.05,42.70,highres
6.196084,66921997169,5.963078,1.207614,-7.332520,0.357307,-0.062054,-0.083691,0.091960,0.952302,2.542665,782.05,42.70,highres
6.209986,66922012980,5.700330,0.917962,-8.017049,0.141766,-0.251382,0.071147,0.091960,0.952302,2.542665,782.05,42.70,highres
6.229995,66922031605,5.677684,0.509221,-8.711015,-0.250343,-0.355323,0.200105,0.091960,0.952302,2.542665,782.05,42.70,highres
6.251389,66922052274,6.413792,0.180205,-8.331331,-0.653579,-0.391272,0.265706,0.091232,0.958745,2.534268,782.05,42.70,highres
6.267388,66922071609,6.489905,-0.546239,-7.782004,-0.762657,-0.344208,0.203544,0.094705,0.974053,2.539017,782.05,42.70,highres
6.267388,66922092064,6.173266,-0.119482,-7.333899,-0.324229,-0.191503,0.184813,0.094705,0.974053,2.539017,782.05,42.70,highres
6.308585,66922112415,5.903212,1.141761,-7.460342,0.273534,0.006449,0.359528,0.094705,0.974053,2.539017,782.05,42.70,highres
6.337531,66922127195,6.176860,0.109782,-8.176661,0.420686,0.048882,0.492074,0.094705,0.974053,2.539017,782.05,42.70,highres
6.351841,66922148650,6.789973,-0.564870,-9.089786,0.254257,0.078674,0.492992,0.094705,0.974053,2.539017,782.05,42.70,highres
6.368679,66922166825,7.052135,-0.631861,-8.300880,-0.222004,0.132845,0.354592,0.094705,0.974053,2.539017,782.05,42.70,highres
6.400049,66922189400,7.176517,-0.851679,-7.282229,-0.567462,0.078540,0.126169,0.090944,0.968328,2.543853,782.05,42.70,highres
6.406631,66922205101,7.006332,-0.353679,-6.765590,-0.514616,0.015210,-0.078884,0.103320,0.988811,2.547614,782.05,42.70,highres
6.429916,66922228557,6.757313,-0.030863,-6.959970,-0.128630,-0.042530,-0.233420,0.103320,0.988811,2.547614,782.05,42.70,highres
6.460750,66922248703,6.522747,-0.011863,-7.749018,0.259963,0.107865,-0.380964,0.103320,0.988811,2.547614,782.05,42.70,highres
6.466434,66922271560,5.933867,-0.111021,-8.447001,0.639151,0.576624,-0.607084,0.103320,0.988811,2.547614,782.05,42.70,highres
6.495433,66922291903,5.464532,0.997790,-8.063191,0.698535,0.985127,-0.469308,0.103320,0.988811,2.547614,782.05,42.70,highres
6.508280,66922308998,5.910119,1.129605,-6.939019,0.526249,1.050085,-0.073504,0.103320,0.988811,2.547614,782.05,42.70,highres
6.531885,66922329097,6.334398,0.360236,-6.379519,0.277806,0.725640,0.328074,0.097667,0.970151,2.534488,782.05,42.70,highres
6.563086,66922346930,6.987605,-0.588206,-6.398735,-0.101307,0.331742,0.429201,0.104752,0.961975,2.528798,782.05,42.70,highres
6.567231,66922371999,7.563924,-0.935981,-6.769306,-0.294655,0.049038,0.235842,0.104752,0.961975,2.528798,782.04,42.70,highres
6.599472,66922394522,7.582916,-0.985377,-6.568263,-0.215004,0.111526,-0.025810,0.104752,0.961975,2.528798,782.04,42.70,highres
6.607542,66922411365,7.473497,-0.361709,-6.497411,-0.157240,0.125424,-0.188688,0.104752,0.961975,2.528798,782.04,42.70,highres
6.630924,66922434304,6.764390,0.590752,-6.213697,-0.305805,-0.043264,-0.171020,0.104752,0.961975,2.528798,782.04,42.70,highres
6.652571,66922452555,6.432146,0.754981,-6.018429,-0.276998,-0.231214,-0.006894,0.104752,0.961975,2.528798,782.04,42.70,highres
6.672082,66922469227,6.525223,0.329522,-6.270832,-0.226772,-0.359597,0.143041,0.102991,0.972734,2.521679,782.04,42.70,highres
6.696337,66922494701,6.646242,-0.127354,-7.463769,-0.082115,-0.340369,0.169316,0.094885,0.979011,2.525618,782.04,42.70,highres
6.710500,66922512095,6.762484,-0.052940,-8.036913,-0.007721,-0.164325,0.154900,0.094885,0.979011,2.525618,782.04,42.70,highres
6.728544,66922531849,6.821671,0.052118,-7.943369,0.066148,0.127263,0.134968,0.094885,0.979011,2.525618,782.05,42.70,highres
6.763028,66922554741,7.110439,-0.224419,-7.522178,0.006289,0.269670,0.070098,0.094885,0.979011,2.525618,782.05,42.70,highres
6.767194,66922571848,7.243283,-0.511183,-6.965593,-0.041895,0.242844,-0.056071,0.094885,0.979011,2.525618,782.05,42.70,highres
6.795789,66922596234,7.158980,-0.118294,-6.426301,0.003848,0.125556,-0.120650,0.094885,0.979011,2.525618,782.05,42.70,highres
6.807993,66922615076,6.918415,0.127779,-6.375359,0.123851,0.043997,-0.106989,0.093816,0.986593,2.531811,782.05,42.70,highres
6.835720,66922631588,6.652254,0.187075,-6.599784,0.180842,0.030410,-0.074989,0.084817,0.979318,2.518649,782.05,42.70,highres
6.861328,66922651913,6.603941,-0.092223,-7.172405,0.253555,0.104594,0.029570,0.084817,0.979318,2.518649,782.05,42.70,highres
6.867894,66922667074,7.007614,-0.181245,-7.163916,0.277150,0.236350,0.067434,0.084817,0.979318,2.518649,782.05,42.70,highres
6.897617,66922691940,7.346294,-0.388393,-6.511816,0.142291,0.298273,0.013013,0.084817,0.979318,2.518649,782.05,42.70,highres
6.908874,66922707537,7.254948,-0.301220,-6.334826,-0.019125,0.185538,-0.030028,0.084817,0.979318,2.518649,782.05,42.70,highres
6.929595,66922727892,7.095857,-0.138718,-6.472095,-0.244280,-0.061474,-0.030135,0.084817,0.979318,2.518649,782.05,42.70,highres
6.950543,66922747163,7.046638,0.011114,-6.734959,-0.448206,-0.256756,-0.035752,0.103542,0.977956,2.521514,782.05,42.70,highres
6.969329,66922762417,6.774125,0.255320,-6.969882,-0.484213,-0.301930,-0.038195,0.110211,0.977532,2.522040,782.05,42.70,highres
6.995232,66922792218,6.611697,0.484303,-7.034171,-0.331110,-0.164925,-0.010396,0.110211,0.977532,2.522040,782.05,42.70,highres
7.009957,66922809776,6.805888,0.389321,-6.842518,0.018356,0.094002,0.050520,0.110211,0.977532,2.522040,782.05,42.70,highres
7.030457,66922829761,7.134848,0.210778,-6.607816,0.167956,0.174083,0.001275,0.110211,0.977532,2.522040,782.05,42.70,highres
7.061991,66922858005,7.079222,0.208045,-6.294521,0.187921,0.035485,-0.046253,0.110211,0.977532,2.522040,782.07,42.70,highres
7.069058,66922872318,6.845133,0.281954,-6.565751,0.112151,-0.142561,-0.032315,0.110211,0.977532,2.522040,782.07,42.70,highres
7.097356,66922895147,6.765838,0.197025,-7.297660,0.059302,-0.223218,0.018772,0.103730,0.979472,2.517950,782.07,42.70,highres
7.108678,66922912352,6.934237,0.034955,-7.410393,0.081376,-0.150908,0.008385,0.095773,0.967058,2.528195,782.07,42.70,highres
7.135488,66922930137,6.719331,0.134060,-7.760954,0.113054,-0.036834,-0.045081,0.095773,0.967058,2.528195,782.06,42.70,highres
7.161175,66922952147,6.553927,0.273416,-7.745017,0.150306,0.142634,0.012975,0.095773,0.967058,2.528195,782.06,42.70,highres
7.167438,66922967336,6.694595,0.114619,-7.542448,0.108034,0.184819,0.073809,0.095773,0.967058,2.528195,782.06,42.70,highres
7.195968,66922987669,6.973485,0.026095,-7.195457,0.033646,0.166147,0.094974,0.095773,0.967058,2.528195,782.06,42.70,highres
7.208156,66923005960,7.075760,-0.017308,-7.006197,-0.046800,0.114051,0.087446,0.095773,0.967058,2.528195,782.05,42.70,highres
7.228782,66923028040,7.028398,-0.076123,-6.763036,-0.075813,0.062948,0.061598,0.106646,0.978998,2.515819,782.05,42.70,highres
7.260320,66923047234,7.173859,-0.219597,-6.549576,-0.028967,0.021067,0.036025,0.106477,0.966151,2.521474,782.05,42.70,highres
7.267779,66923067290,7.147511,0.028324,-6.598003,0.002899,-0.020613,-0.027524,0.106477,0.966151,2.521474,782.05,42.70,highres
7.267779,66923092270,6.955919,0.010806,-6.796826,0.053071,-0.012818,-0.040633,0.106477,0.966151,2.521474,782.05,42.70,highres
7.310246,66923112633,6.898096,-0.052909,-6.891045,0.070674,0.029922,0.000341,0.106477,0.966151,2.521474,782.05,42.70,highres
7.329491,66923132685,7.219821,-0.405608,-6.731947,0.011058,-0.005835,-0.010604,0.106477,0.966151,2.521474,782.05,42.70,highres
7.350923,66923152956,7.310382,-0.372832,-6.635112,-0.037825,-0.062011,-0.071793,0.106477,0.966151,2.521474,782.05,42.70,highres
7.367543,66923167385,7.209684,-0.241743,-6.604770,-0.054717,-0.087036,-0.113697,0.107425,0.972840,2.511593,782.05,42.70,highres
7.401456,66923192544,6.876960,0.152282,-6.712636,-0.040415,-0.087446,-0.125343,0.109646,0.982398,2.512757,782.05,42.70,highres
7.408043,66923212964,6.812102,0.185707,-6.639482,-0.076375,-0.132126,-0.075761,0.109646,0.982398,2.512757,782.05,42.70,highres
7.429007,66923234795,6.800618,0.242643,-6.729184,-0.090026,-0.165802,-0.032049,0.109646,0.982398,2.512757,782.05,42.70,highres
7.450896,66923249937,6.649652,0.328925,-6.976048,-0.045557,-0.122087,-0.000086,0.109646,0.982398,2.512757,782.06,42.70,highres
7.467014,66923272599,6.702848,0.214057,-7.178813,0.057775,-0.011920,0.062903,0.109646,0.982398,2.512757,782.06,42.70,highres
7.500626,66923293116,6.904245,-0.015120,-7.248765,0.023446,0.002582,0.062911,0.109646,0.982398,2.512757,782.06,42.70,highres
7.506215,66923312802,6.997953,-0.010126,-7.145055,-0.001173,-0.013447,0.058321,0.101497,0.976715,2.515319,782.06,42.70,highres
7.528532,66923332923,6.904347,0.023102,-7.050381,-0.006865,-0.013067,0.051930,0.113888,0.989886,2.507503,782.06,42.70,highres
7.560981,66923353359,7.004445,-0.128261,-6.925149,-0.003573,-0.025794,0.016566,0.113888,0.989886,2.507503,782.06,42.70,highres
7.567798,66923372775,6.957916,-0.146369,-7.018190,0.018875,-0.050321,-0.022398,0.113888,0.989886,2.507503,782.06,42.70,highres
7.600717,66923393437,6.962041,-0.093675,-7.074184,0.013487,-0.032269,-0.024219,0.113888,0.989886,2.507503,782.06,42.70,highres
7.608621,66923412666,6.865531,-0.021260,-7.112631,0.013704,-0.009840,-0.034797,0.113888,0.989886,2.507503,782.05,42.70,highres
7.628501,66923433033,6.847535,0.093565,-7.052882,-0.001060,-0.038725,-0.039760,0.113888,0.989886,2.507503,782.05,42.70,highres
7.661264,66923458075,6.827992,0.146184,-7.218392,-0.037939,-0.099929,-0.031344,0.102414,0.978565,2.520808,782.05,42.70,highres
7.667100,66923475639,6.711118,0.210777,-7.395827,-0.053912,-0.079852,-0.012008,0.097725,0.975236,2.520983,782.05,42.70,highres
7.695253,66923490445,6.650396,0.270454,-7.338056,-0.030265,-0.020427,0.018229,0.097725,0.975236,2.520983,782.04,42.70,highres
7.707756,66923510421,6.709337,0.209860,-7.146315,0.014277,0.031686,0.036291,0.097725,0.975236,2.520983,782.04,42.70,highres
7.730420,66923530390,6.801776,0.133910,-7.163150,0.044102,0.057555,0.024823,0.097725,0.975236,2.520983,782.04,42.70,highres
7.752749,66923552922,6.781287,0.148905,-7.122159,0.021763,0.078697,0.035906,0.097725,0.975236,2.520983,782.04,42.70,highres
7.768039,66923570476,6.894630,0.094699,-6.845678,0.004751,0.067550,0.040972,0.097725,0.975236,2.520983,782.03,42.70,highres
7.800402,66923593092,6.925708,0.008885,-6.671094,-0.009798,-0.014146,0.020609,0.103717,0.976504,2.521428,782.03,42.70,highres
7.807712,66923613769,6.944148,-0.117305,-6.919010,0.017169,-0.043527,0.016313,0.095245,0.971861,2.524485,782.03,42.70,highres
7.835346,66923633077,6.964401,-0.141094,-7.143675,0.020159,-0.012058,0.001439,0.095245,0.971861,2.524485,782.03,42.70,highres
7.851114,66923650401,6.875462,-0.062832,-7.117918,0.019592,0.033885,-0.008976,0.095245,0.971861,2.524485,782.04,42.70,highres
7.873592,66923673389,6.808491,0.019674,-6.925163,0.043813,0.056167,-0.004598,0.095245,0.971861,2.524485,782.04,42.70,highres
7.900503,66923690772,6.921200,-0.003497,-6.830328,0.056980,0.015259,-0.005289,0.095245,0.971861,2.524485,782.04,42.70,highres
7.916425,66923711455,7.103984,-0.162370,-7.022126,0.046316,-0.031908,-0.031851,0.095245,0.971861,2.524485,782.04,42.70,highres
7.929203,66923733324,6.977837,-0.074568,-7.124207,-0.004821,-0.043554,-0.088015,0.100719,0.982142,2.525231,782.05,42.70,highres
7.954388,66923753184,6.713497,0.114146,-7.093147,-0.044073,-0.027691,-0.078374,0.110123,0.976804,2.515649,782.05,42.70,highres
7.967382,66923773361,6.473806,0.315037,-7.286150,-0.008512,0.023843,-0.042075,0.110123,0.976804,2.515649,782.05,42.70,highres
7.999836,66923795864,6.656297,0.329140,-7.370573,0.047428,0.114526,0.038869,0.110123,0.976804,2.515649,782.05,42.70,highres
8.008347,66923813639,6.971894,0.076210,-7.062755,0.075090,0.153596,0.060579,0.110123,0.976804,2.515649,782.05,42.70,highres
8.033965,66923833140,7.050622,-0.014914,-6.868536,0.056265,0.109947,0.033590,0.110123,0.976804,2.515649,782.05,42.70,highres
8.051676,66923847936,6.988529,-0.011595,-6.838752,0.027284,0.060569,0.012515,0.110123,0.976804,2.515649,782.05,42.70,highres
8.075402,66923867972,6.902056,-0.074835,-6.891448,0.007909,0.012399,0.001923,0.103443,0.972434,2.515475,782.05,42.70,highres
8.100041,66923888658,7.228457,-0.322597,-6.845267,0.002509,0.001213,-0.022305,0.103672,0.970744,2.524539,782.05,42.70,highres
8.113013,66923908331,7.185888,-0.220807,-6.777560,-0.040862,-0.029941,-0.091027,0.103672,0.970744,2.524539,782.05,42.70,highres
8.129591,66923930863,6.971954,-0.045313,-6.719241,-0.057493,-0.047393,-0.124451,0.103672,0.970744,2.524539,782.05,42.70,highres
8.152126,66923946873,6.856428,0.057545,-6.621504,-0.032496,-0.065544,-0.117008,0.103672,0.970744,2.524539,782.05,42.70,highres
8.166880,66923968551,6.844865,0.063114,-6.842689,-0.007140,-0.103353,-0.099023,0.103672,0.970744,2.524539,782.06,42.70,highres
8.199737,66923991423,6.691724,0.147078,-7.096864,-0.002575,-0.075079,-0.056409,0.103672,0.970744,2.524539,782.06,42.70,highres
8.207705,66924008878,6.720280,0.226426,-7.036685,0.011233,-0.019070,-0.014997,0.101852,0.973507,2.518323,782.06,42.70,highres
8.227913,66924028657,6.859085,0.204033,-6.856391,0.056693,0.018531,0.022350,0.109045,0.972009,2.510875,782.06,42.70,highres
8.260912,66924044824,6.939345,0.103977,-7.013091,0.084060,-0.001536,0.014347,0.109045,0.972009,2.510875,782.06,42.70,highres
8.266703,66924060851,6.883657,0.126176,-7.120622,0.077646,-0.024138,-0.012225,0.109045,0.972009,2.510875,782.06,42.70,highres
8.280522,66924083464,6.815002,0.140153,-6.907051,0.033691,-0.033579,-0.016140,0.109045,0.972009,2.510875,782.06,42.70,highres
8.321595,66924104122,6.807621,0.202949,-7.087596,-0.010896,-0.109629,-0.014000,0.109045,0.972009,2.510875,782.06,42.70,highres
8.332499,66924121639,6.701632,0.326232,-7.362880,-0.048908,-0.175674,-0.030488,0.109045,0.972009,2.510875,782.05,42.70,highres
8.361759,66924143716,6.604014,0.125541,-7.524483,-0.062770,-0.130214,0.018089,0.099318,0.969931,2.515980,782.05,42.70,highres
8.374286,66924168452,6.717843,-0.038855,-7.529307,-0.047764,-0.020153,0.034719,0.102152,0.970607,2.528791,782.05,42.70,highres
8.395192,66924192548,6.879445,0.065288,-7.255184,0.032136,0.110252,-0.005200,0.102152,0.970607,2.528791,782.05,42.70,highres
8.419498,66924213830,6.939957,0.169078,-6.866478,0.046492,0.091088,-0.005200,0.102152,0.970607,2.528791,782.05,42.70,highres
8.429238,66924230771,6.918927,0.002633,-6.727530,0.009599,0.006259,-0.008482,0.102152,0.970607,2.528791,782.05,42.70,highres
8.457417,66924256746,6.750607,0.051236,-7.035994,-0.075997,-0.097709,-0.012483,0.102152,0.970607,2.528791,782.05,42.70,highres
8.466425,66924271013,6.689479,0.200134,-7.190282,-0.085150,-0.068426,0.013125,0.102152,0.970607,2.528791,782.05,42.70,highres
8.500254,66924292169,6.709532,0.221919,-7.019832,-0.033922,0.024124,0.047303,0.098289,0.966291,2.526390,782.05,42.85,highres
8.508173,66924308611,6.863897,0.041708,-6.825873,0.036944,0.081034,0.051841,0.095543,0.963937,2.520941,782.05,42.85,highres
8.537462,66924332046,7.042028,-0.165579,-6.835242,0.112607,0.041914,0.025938,0.095543,0.963937,2.520941,782.05,42.85,highres
8.552254,66924351278,7.026682,-0.135816,-7.143858,0.065734,-0.030552,-0.008560,0.095543,0.963937,2.520941,782.05,42.85,highres
8.567453,66924371161,6.912135,-0.207216,-7.306286,0.010463,-0.058149,-0.022201,0.095543,0.963937,2.520941,782.05,43.00,highres
8.594874,66924392077,6.816071,-0.126151,-7.382773,-0.082075,-0.033642,-0.076540,0.095543,0.963937,2.520941,782.05,43.00,highres
8.608766,66924415374,6.622140,0.296887,-7.162117,-0.085403,-0.005217,-0.059345,0.095543,0.963937,2.520941,782.05,43.00,highres
8.629478,66924430959,6.630822,0.437678,-7.010210,-0.031936,0.004113,-0.016711,0.098706,0.972098,2.521088,782.05,43.00,highres
8.650890,66924454912,6.837194,0.235664,-7.010240,0.029506,0.017461,0.008790,0.091007,0.978801,2.524704,782.04,43.00,highres
8.670971,66924468424,6.894917,0.086228,-6.985257,0.048630,0.025496,-0.015409,0.091007,0.978801,2.524704,782.04,43.00,highres
8.700804,66924494332,6.779156,0.213863,-6.987355,-0.000067,-0.024266,-0.049754,0.091007,0.978801,2.524704,782.04,43.00,highres
8.711807,66924511780,6.699046,0.316669,-7.088560,-0.082833,-0.110761,-0.020745,0.091007,0.978801,2.524704,782.04,43.00,highres
8.731256,66924532388,6.632452,0.342824,-7.256680,-0.146429,-0.141751,0.023000,0.091007,0.978801,2.524704,782.05,43.00,highres
8.762076,66924554724,6.531427,0.295182,-7.353236,-0.109074,-0.054638,0.062183,0.091007,0.978801,2.524704,782.05,43.00,highres
8.767723,66924574424,6.741276,0.127140,-7.190779,0.010127,0.089567,0.068066,0.095406,0.972837,2.521437,782.05,43.00,highres
8.800205,66924593785,7.013182,0.107418,-6.638072,0.130755,0.157111,0.044484,0.105713,0.979650,2.523717,782.05,43.00,highres
8.807480,66924611130,7.070323,0.041000,-6.265314,0.137961,0.060501,0.010339,0.105713,0.979650,2.523717,782.05,43.00,highres
8.827890,66924631351,6.939382,-0.003628,-6.483490,0.090391,-0.110370,-0.029380,0.105713,0.979650,2.523717,782.05,43.00,highres
8.851531,66924651076,6.766868,0.027713,-7.007189,0.045040,-0.145323,-0.034032,0.105713,0.979650,2.523717,782.05,43.00,highres
8.872394,66924667454,6.613873,0.199631,-7.211006,0.030779,-0.090790,-0.019929,0.105713,0.979650,2.523717,782.05,43.00,highres
8.894648,66924687054,6.553847,0.254422,-7.191740,0.051684,0.000296,0.024121,0.105713,0.979650,2.523717,782.05,43.00,highres
8.913020,66924714101,6.818156,0.019082,-7.052402,0.035345,-0.026728,0.063830,0.095884,0.969647,2.523490,782.05,43.00,highres
8.930498,66924729154,6.929721,-0.084343,-7.255184,0.035802,-0.070869,0.026565,0.088175,0.983439,2.523790,782.05,43.00,highres
8.961418,66924751931,6.697761,0.076231,-7.533961,0.043104,-0.055406,-0.021610,0.088175,0.983439,2.523790,782.05,43.00,highres
8.967262,66924768038,6.581862,0.124221,-7.555390,0.038800,-0.010695,-0.006561,0.088175,0.983439,2.523790,782.04,43.00,highres
8.999358,66924791751,6.650006,0.005749,-7.332794,-0.024777,-0.009852,0.044303,0.088175,0.983439,2.523790,782.04,43.00,highres
9.007264,66924814376,6.771446,0.006100,-7.323811,-0.073488,-0.051457,0.052967,0.088175,0.983439,2.523790,782.04,43.00,highres
9.027847,66924830097,6.776113,0.046019,-7.246572,-0.039340,-0.030663,0.040949,0.088175,0.983439,2.523790,782.04,43.00,highres
9.051515,66924854865,6.553347,0.070794,-7.355823,0.091669,0.084231,0.045126,0.090748,0.965812,2.519340,782.04,43.00,highres
9.067368,66924869115,6.636875,0.004564,-7.423750,0.155495,0.169052,0.056169,0.090836,0.975580,2.526207,782.04,43.00,highres
9.095380,66924889656,6.802169,0.087101,-7.088127,0.124082,0.218396,0.054662,0.090836,0.975580,2.526207,782.04,43.00,highres
9.107693,66924906990,6.887937,0.096138,-6.771509,0.075696,0.160707,0.057720,0.090836,0.975580,2.526207,782.04,43.00,highres
9.129352,66924929450,6.849625,0.009166,-6.602402,0.004655,0.027962,0.065555,0.090836,0.975580,2.526207,782.05,43.00,highres
9.151146,66924944434,6.852662,-0.221024,-6.890444,-0.027669,-0.067237,0.055722,0.090836,0.975580,2.526207,782.05,43.00,highres
9.167836,66924971800,6.879445,-0.098707,-7.334188,-0.055510,-0.072653,0.017485,0.090836,0.975580,2.526207,782.05,43.00,highres
9.196356,66924987129,6.755715,0.018892,-7.210253,-0.040481,-0.000510,0.023398,0.095022,0.966615,2.517016,782.05,43.00,highres
9.207143,66925007352,6.742048,-0.070403,-6.792000,0.013823,0.075430,0.051008,0.094579,0.961581,2.513050,782.05,43.00,highres
9.230483,66925032007,7.043441,-0.357270,-6.631520,0.049062,0.021007,0.044480,0.094579,0.961581,2.513050,782.05,43.00,highres
9.256690,66925053499,7.122164,-0.349771,-6.822872,0.017375,-0.082417,-0.012311,0.094579,0.961581,2.513050,782.05,43.00,highres
9.267045,66925069113,6.975728,-0.229155,-7.019435,-0.023276,-0.114782,-0.034530,0.094579,0.961581,2.513050,782.05,43.00,highres
9.280844,66925094439,6.486812,-0.006535,-7.479032,-0.023745,-0.063847,-0.029015,0.094579,0.961581,2.513050,782.05,43.00,highres
9.321583,66925114750,6.538684,-0.038168,-7.678188,0.027079,0.059522,0.030947,0.094579,0.961581,2.513050,782.05,43.00,highres
9.327173,66925132265,6.876320,-0.124298,-7.423793,0.062119,0.145411,0.044900,0.101408,0.970444,2.516425,782.05,43.00,highres
9.352482,66925147258,7.053674,-0.205479,-7.057480,0.064525,0.150566,0.011913,0.108435,0.974320,2.515058,782.05,43.00,highres
9.378728,66925167164,6.911152,0.000606,-6.819332,0.017993,0.093179,-0.049809,0.108435,0.974320,2.515058,782.05,43.00,highres
9.395453,66925187692,6.657859,0.090821,-6.875297,-0.048424,-0.027684,-0.051666,0.108435,0.974320,2.515058,782.05,43.00,highres
9.417153,66925208002,6.704131,0.125830,-7.021867,-0.085696,-0.075640,-0.008026,0.108435,0.974320,2.515058,782.05,43.00,highres
9.430084,66925226930,6.701616,0.136992,-7.089445,-0.079028,-0.052241,0.014662,0.108435,0.974320,2.515058,782.05,43.00,highres
9.460263,66925252568,6.679611,0.034245,-7.031617,-0.007252,0.033280,0.043372,0.108435,0.974320,2.515058,782.05,43.00,highres
9.466862,66925274526,6.937322,-0.115481,-6.856441,0.049240,0.064037,0.051103,0.102371,0.969305,2.516211,782.05,43.00,highres
9.494794,66925298078,7.069613,-0.197658,-6.751709,0.034130,-0.002838,-0.001868,0.100314,0.966622,2.519398,782.05,43.00,highres
9.506101,66925317469,6.872482,-0.073541,-6.855549,0.004731,-0.076540,-0.035915,0.100314,0.966622,2.519398,782.05,43.00,highres
9.529569,66925332358,6.617320,-0.068774,-7.079173,-0.010098,-0.093270,-0.015786,0.100314,0.966622,2.519398,782.05,43.00,highres
9.551847,66925355233,6.622187,-0.050265,-7.332386,-0.042029,-0.072809,0.036038,0.100314,0.966622,2.519398,782.05,43.00,highres
9.567005,66925375714,6.886908,-0.226076,-7.286594,-0.042369,-0.020352,0.054695,0.100314,0.966622,2.519398,782.05,43.00,highres
9.601396,66925392424,7.031003,-0.240234,-7.162570,-0.005353,0.016266,0.003172,0.100314,0.966622,2.519398,782.05,43.00,highres
9.617115,66925412307,6.877741,-0.097908,-7.035125,0.042694,0.034298,-0.042541,0.098756,0.971069,2.518383,782.05,43.00,highres
9.628656,66925434644,6.730424,-0.076006,-7.082544,0.011204,-0.009301,-0.033193,0.099445,0.963229,2.532181,782.05,43.00,highres
9.651486,66925452896,6.761625,-0.098898,-7.109376,-0.045502,-0.047721,-0.014436,0.099445,0.963229,2.532181,782.05,43.00,highres
9.674685,66925472155,6.792305,-0.005338,-7.105395,-0.070171,-0.048112,-0.012827,0.099445,0.963229,2.532181,782.05,43.00,highres
9.695650,66925493008,6.676833,0.139034,-7.073126,-0.015969,-0.015412,-0.011857,0.099445,0.963229,2.532181,782.06,43.00,highres
9.707104,66925513556,6.652006,0.184993,-7.046897,0.067274,0.030226,0.003666,0.099445,0.963229,2.532181,782.06,43.00,highres
9.729007,66925537247,6.820794,-0.002549,-7.020562,0.100556,0.033880,0.004764,0.099445,0.963229,2.532181,782.06,43.00,highres
9.758691,66925552661,6.874345,-0.042188,-7.073439,0.050398,0.004146,-0.019892,0.096986,0.970319,2.528236,782.06,43.00,highres
9.768946,66925567576,6.681515,0.025180,-7.058356,-0.006278,-0.024561,-0.011166,0.090400,0.980229,2.536030,782.05,43.00,highres
9.800492,66925592531,6.643028,-0.022312,-7.215704,-0.027821,-0.028862,0.040418,0.090400,0.980229,2.536030,782.05,43.00,highres
9.807544,66925613335,6.810294,-0.024096,-7.257183,-0.001102,0.016432,0.034690,0.090400,0.980229,2.536030,782.05,43.00,highres
9.829609,66925630240,6.822130,-0.022942,-7.151204,0.032667,0.051603,0.028800,0.090400,0.980229,2.536030,782.05,43.00,highres
9.850935,66925652491,6.776323,-0.145750,-7.012890,0.050294,0.050328,0.031913,0.090400,0.980229,2.536030,782.06,43.00,highres
9.868289,66925675029,6.795651,-0.129033,-7.128580,0.030813,0.009332,0.020465,0.090400,0.980229,2.536030,782.06,43.00,highres
9.895202,66925692688,6.854681,-0.086163,-7.105999,-0.009443,-0.018592,0.016937,0.097583,0.968762,2.516510,782.06,43.00,highres
9.907744,66925713349,6.891415,-0.169333,-6.931980,-0.062535,-0.070567,0.004277,0.097423,0.969605,2.523215,782.06,43.00,highres
9.929897,66925732694,6.791336,-0.153161,-6.986562,-0.047237,-0.096979,-0.011607,0.097423,0.969605,2.523215,782.04,43.00,highres
9.951720,66925747787,6.640633,-0.069878,-7.399729,0.010158,-0.055601,-0.008551,0.097423,0.969605,2.523215,782.04,43.00,highres
9.967556,66925768027,6.756482,-0.079810,-7.370047,0.074910,0.069016,0.011302,0.097423,0.969605,2.523215,782.04,43.00,highres
10.000861,66925787780,6.858258,-0.165316,-7.021790,0.034221,0.092828,0.010730,0.097423,0.969605,2.523215,782.04,43.00,highres
10.007434,66925798928,6.821986,-0.177351,-6.905353,-0.001824,0.053338,0.007194,0.097423,0.969605,2.523215,782.04,43.00,highres
10.030662,66925822558,6.812515,-0.054546,-6.941478,-0.054848,-0.039048,0.006310,0.093912,0.974118,2.518429,782.04,43.00,highres
10.062116,66925849980,6.805161,0.028791,-7.073457,0.016195,-0.013984,-0.011113,0.095218,0.971906,2.520505,782.04,43.00,highres
10.067506,66925867641,6.715063,0.087121,-7.050488,0.046594,0.008998,-0.021141,0.095218,0.971906,2.520505,782.04,43.00,highres
10.094920,66925892863,6.613700,-0.002944,-7.064852,0.016755,-0.012366,0.030908,0.095218,0.971906,2.520505,782.04,43.00,highres
10.106441,66925908685,6.725975,-0.117775,-7.249169,0.002289,-0.021012,0.049964,0.095218,0.971906,2.520505,782.04,43.00,highres
10.129742,66925927828,6.902672,-0.207214,-7.293702,0.009864,0.003651,0.032081,0.095218,0.971906,2.520505,782.04,43.00,highres
10.152295,66925947836,6.897029,-0.210329,-7.153778,0.010475,0.033278,0.005814,0.095218,0.971906,2.520505,782.04,43.00,highres
10.169719,66925963054,6.797628,-0.158357,-7.013176,-0.010549,0.019387,-0.001408,0.104924,0.972132,2.519244,782.05,43.00,highres
10.197228,66925988075,6.738930,-0.106881,-6.980213,-0.053239,-0.027004,0.009358,0.095596,0.980039,2.509583,782.05,43.00,highres
10.215896,66926004271,6.763675,-0.064544,-6.979880,-0.032393,-0.022451,0.014316,0.095596,0.980039,2.509583,782.05,43.00,highres
10.231281,66926026845,6.817477,-0.051317,-6.987793,0.035478,0.006585,0.006546,0.095596,0.980039,2.509583,782.05,43.00,highres
10.259088,66926048173,6.768636,-0.141337,-7.116270,0.050785,-0.008163,0.003065,0.095596,0.980039,2.509583,782.06,43.00,highres
10.267008,66926067942,6.807476,-0.188808,-7.179972,0.012255,-0.020442,0.003200,0.095596,0.980039,2.509583,782.06,43.00,highres
10.288682,66926087757,6.755577,-0.154380,-7.166636,-0.046946,-0.040026,-0.001822,0.095596,0.980039,2.509583,782.06,43.00,highres
10.288682,66926110590,6.693902,-0.058008,-7.275533,-0.023648,-0.018559,0.000360,0.100783,0.979952,2.521171,782.06,43.00,highres
10.330639,66926127218,6.735680,-0.070219,-7.296720,0.033327,0.028800,0.011299,0.104397,0.970871,2.517239,782.06,43.00,highres
10.351209,66926147729,6.856530,-0.182996,-7.090616,0.080701,0.087298,0.014930,0.104397,0.970871,2.517239,782.06,43.00,highres
10.367654,66926173010,6.851917,-0.140813,-6.940611,0.017162,0.044992,-0.013397,0.104397,0.970871,2.517239,782.06,43.00,highres
10.394761,66926193481,6.698011,-0.012226,-6.949913,-0.075793,-0.054164,-0.015193,0.104397,0.970871,2.517239,782.06,43.00,highres
10.406805,66926216261,6.721445,-0.105215,-7.168321,-0.087784,-0.078006,0.010244,0.104397,0.970871,2.517239,782.06,43.00,highres
10.429560,66926230920,6.874018,-0.242138,-7.252014,-0.039712,-0.027354,0.010114,0.104397,0.970871,2.517239,782.06,43.00,highres
10.450711,66926256586,6.888965,-0.216841,-7.094534,0.050131,0.056087,-0.022478,0.096734,0.975817,2.519035,782.06,43.00,highres
10.471654,66926273718,6.791526,-0.174453,-6.989006,0.061873,0.061438,-0.036890,0.088173,0.982566,2.530136,782.06,43.00,highres
10.499930,66926296090,6.721434,-0.055614,-7.032532,-0.011821,-0.026892,-0.035420,0.088173,0.982566,2.530136,782.06,42.85,highres
10.509988,66926315454,6.730798,0.080325,-7.289502,-0.092162,-0.076849,-0.021316,0.088173,0.982566,2.530136,782.06,42.85,highres
10.528003,66926333410,6.672340,0.108352,-7.236516,-0.110141,-0.055260,0.011028,0.088173,0.982566,2.530136,782.06,42.85,highres
10.553174,66926355876,6.667865,0.027763,-7.039238,-0.039297,-0.000032,0.027500,0.088173,0.982566,2.530136,782.06,42.85,highres
10.566417,66926371654,6.783626,-0.049628,-6.977036,0.033249,0.026229,0.015930,0.088173,0.982566,2.530136,782.05,42.70,highres
10.596768,66926394124,6.807057,-0.019451,-7.156835,0.051809,0.019598,-0.011094,0.098202,0.976103,2.522710,782.05,42.70,highres
10.606623,66926413659,6.677061,0.083837,-7.179385,-0.025225,0.007904,0.004078,0.112312,0.974530,2.515971,782.05,42.70,highres
10.635441,66926430754,6.607808,0.098166,-7.041126,-0.064026,-0.006044,0.035760,0.112312,0.974530,2.515971,782.05,42.70,highres
10.651047,66926453904,6.752557,-0.140604,-6.939162,-0.032200,-0.022933,0.056686,0.112312,0.974530,2.515971,782.05,42.70,highres
10.676200,66926471834,6.985734,-0.231828,-7.034270,0.017175,-0.016722,0.015427,0.112312,0.974530,2.515971,782.05,42.70,highres
10.695418,66926493503,6.887615,-0.174451,-7.106274,0.041800,-0.002114,-0.016111,0.112312,0.974530,2.515971,782.05,42.70,highres
10.716260,66926513653,6.682764,-0.092193,-7.033401,0.021198,-0.003795,-0.013229,0.112312,0.974530,2.515971,782.05,42.70,highres
10.727714,66926534061,6.605702,-0.035938,-7.055285,0.005395,-0.029834,0.018034,0.091438,0.974261,2.521266,782.06,42.70,highres
10.762334,66926555963,6.843575,-0.242006,-7.284343,-0.012001,-0.034635,0.028136,0.086203,0.977926,2.507984,782.06,42.70,highres
10.766805,66926573870,6.878399,-0.209221,-7.337932,-0.023021,0.003408,0.000845,0.086203,0.977926,2.507984,782.06,42.70,highres
10.801725,66926596820,6.712077,-0.033089,-7.107659,-0.011414,0.029650,-0.005811,0.086203,0.977926,2.507984,782.06,42.70,highres
10.807638,66926611063,6.658192,-0.007587,-6.973575,0.011684,0.005255,0.003918,0.086203,0.977926,2.507984,782.05,42.70,highres
10.829833,66926631217,6.812409,-0.183698,-7.180966,0.022387,-0.020783,0.000927,0.086203,0.977926,2.507984,782.05,42.70,highres
10.853154,66926648625,6.866994,-0.207397,-7.304980,0.003450,-0.006305,-0.019354,0.086203,0.977926,2.507984,782.05,42.70,highres
10.868101,66926676273,6.667154,0.004797,-7.046497,-0.021130,0.030543,-0.010415,0.098505,0.977238,2.524243,782.05,42.70,highres
10.893282,66926691427,6.648414,0.019800,-6.878113,-0.023733,0.005789,0.003981,0.106622,0.982098,2.523649,782.06,42.70,highres
10.906410,66926715990,6.798149,-0.076171,-7.122407,-0.008830,-0.049334,-0.004202,0.106622,0.982098,2.523649,782.06,42.70,highres
10.929368,66926733956,6.773452,-0.077509,-7.390435,0.001223,-0.018399,-0.011422,0.106622,0.982098,2.523649,782.06,42.70,highres
10.951250,66926754918,6.634049,0.079653,-7.313838,-0.005701,0.042418,-0.007788,0.106622,0.982098,2.523649,782.06,42.70,highres
10.967299,66926771255,6.519631,0.133520,-7.043642,-0.019344,0.053989,0.026203,0.106622,0.982098,2.523649,782.05,42.70,highres
11.000188,66926796123,6.816019,-0.144443,-6.895665,-0.013745,0.005662,0.064027,0.106622,0.982098,2.523649,782.05,42.70,highres
11.008850,66926814500,7.050489,-0.283299,-6.996227,0.001396,-0.017529,0.014304,0.100341,0.979845,2.526407,782.05,42.70,highres
11.028366,66926831907,7.009965,-0.223013,-6.920733,0.009410,-0.030651,-0.036543,0.098458,0.974472,2.521621,782.05,42.70,highres
11.056899,66926855645,6.616707,0.030166,-7.042068,-0.000492,-0.070516,-0.041410,0.098458,0.974472,2.521621,782.06,42.70,highres
11.067576,66926871541,6.484233,0.029426,-7.250249,-0.006630,-0.064708,0.008763,0.098458,0.974472,2.521621,782.06,42.70,highres
11.094954,66926894613,6.731508,-0.168990,-7.466284,0.000705,0.007040,0.039515,0.098458,0.974472,2.521621,782.06,42.70,highres
11.107305,66926911249,6.870245,-0.195292,-7.346543,0.004851,0.066000,0.021106,0.098458,0.974472,2.521621,782.06,42.70,highres
11.128945,66926935013,6.847400,-0.070623,-6.925720,0.003320,0.053996,-0.008039,0.098458,0.974472,2.521621,782.06,42.70,highres
11.152913,66926951430,6.780090,-0.035264,-6.821851,-0.002037,-0.029948,-0.023498,0.091943,0.977706,2.520510,782.06,42.70,highres
11.166474,66926974506,6.678993,-0.067760,-7.235605,-0.021098,-0.082586,-0.027318,0.103578,0.970025,2.517353,782.06,42.70,highres
11.196791,66926991522,6.627913,-0.045886,-7.447495,-0.026887,-0.040026,-0.001489,0.103578,0.970025,2.517353,782.06,42.70,highres
11.206996,66927012178,6.667803,-0.075447,-7.279873,-0.032280,0.040951,0.024761,0.103578,0.970025,2.517353,782.06,42.70,highres
11.232098,66927027143,6.808030,-0.112561,-6.948827,-0.025831,0.052266,0.019204,0.103578,0.970025,2.517353,782.06,42.70,highres
11.250758,66927051871,6.835154,-0.055614,-6.884099,0.002544,-0.003681,-0.015251,0.103578,0.970025,2.517353,782.06,42.70,highres
11.272144,66927066945,6.783576,-0.016718,-7.056076,0.007737,-0.034143,-0.021081,0.103578,0.970025,2.517353,782.06,42.70,highres
11.285766,66927085345,6.647491,0.076148,-7.170726,0.007568,-0.031145,-0.018592,0.098380,0.979776,2.522767,782.05,42.70,highres
11.285766,66927112053,6.576592,0.078456,-7.084006,0.011832,-0.001114,0.012673,0.121567,0.973368,2.523850,782.05,42.70,highres
11.329835,66927131843,6.750051,-0.060094,-7.132738,0.023619,-0.015593,0.023844,0.121567,0.973368,2.523850,782.05,42.70,highres
11.350284,66927154843,6.837822,-0.060009,-7.239895,0.017165,-0.025161,-0.002428,0.121567,0.973368,2.523850,782.05,42.70,highres
11.367458,66927171838,6.714365,0.005288,-7.231206,-0.000690,-0.021584,-0.008594,0.121567,0.973368,2.523850,782.05,42.70,highres
11.395062,66927188057,6.556941,0.074155,-7.140759,0.007431,-0.011011,0.007351,0.121567,0.973368,2.523850,782.05,42.70,highres
11.406918,66927207369,6.665647,-0.127913,-7.157504,0.038585,0.011286,0.043087,0.121567,0.973368,2.523850,782.05,42.70,highres
11.437911,66927229678,6.919812,-0.268505,-7.179218,0.032790,0.015564,0.030368,0.097220,0.977561,2.524465,782.05,42.70,highres
11.451321,66927251833,6.874656,-0.217215,-7.044502,-0.000585,-0.012248,-0.002915,0.114127,0.977679,2.528526,782.05,42.70,highres
11.468105,66927272684,6.653278,-0.123173,-7.083631,-0.020999,-0.040613,-0.019832,0.114127,0.977679,2.528526,782.05,42.70,highres
11.499335,66927294506,6.625215,-0.171826,-7.228373,0.028827,-0.015646,0.006479,0.114127,0.977679,2.528526,782.05,42.70,highres
11.507403,66927311561,6.856414,-0.285594,-7.391646,0.056626,0.034231,0.000674,0.114127,0.977679,2.528526,782.05,42.70,highres
11.535265,66927334740,6.927981,-0.270228,-7.187304,0.028527,0.050882,-0.032465,0.114127,0.977679,2.528526,782.05,42.70,highres
11.560931,66927357724,6.734188,-0.058262,-6.946839,-0.033771,-0.016828,-0.053467,0.114127,0.977679,2.528526,782.05,42.70,highres
11.567364,66927374887,6.559332,0.100271,-7.015684,-0.052509,-0.059439,-0.033167,0.095508,0.978900,2.522436,782.05,42.70,highres
11.594380,66927397214,6.627143,0.079193,-7.187044,-0.022975,-0.042169,0.002674,0.105507,0.990048,2.520960,782.05,42.70,highres
11.609935,66927414793,6.736994,-0.006425,-7.200554,0.027784,0.010035,0.004103,0.105507,0.990048,2.520960,782.05,42.70,highres
11.630754,66927429792,6.773256,0.027364,-7.054691,0.060316,0.034774,-0.015203,0.105507,0.990048,2.520960,782.05,42.70,highres
11.664114,66927452044,6.556670,0.201317,-7.070734,0.046702,-0.005001,-0.015540,0.105507,0.990048,2.520960,782.05,42.70,highres
11.667320,66927467063,6.447698,0.232716,-7.265338,0.023999,-0.034975,0.007598,0.105507,0.990048,2.520960,782.05,42.70,highres
11.694447,66927487259,6.575395,0.032212,-7.315351,0.003346,-0.013432,0.057770,0.105507,0.990048,2.520960,782.04,42.70,highres
11.707960,66927509240,6.799086,-0.101206,-7.140319,-0.009248,0.018251,0.057454,0.095907,0.973535,2.521058,782.04,42.70,highres
11.732589,66927529769,6.715291,-0.020257,-6.997800,-0.015171,0.001817,0.042781,0.080679,0.986967,2.526851,782.04,42.70,highres
11.750106,66927545317,6.663387,-0.083009,-7.100323,0.008095,-0.022391,0.053431,0.080679,0.986967,2.526851,782.04,42.70,highres
11.767389,66927569640,6.779297,-0.294627,-7.330560,0.065758,0.003786,0.053745,0.080679,0.986967,2.526851,782.04,42.70,highres
11.799986,66927589558,6.834589,-0.284218,-7.195868,0.081346,0.052214,0.018652,0.080679,0.986967,2.526851,782.04,42.70,highres
11.812908,66927605020,6.768546,-0.220452,-7.041442,0.049862,0.040459,0.005941,0.080679,0.986967,2.526851,782.04,42.70,highres
11.829149,66927632404,6.671158,-0.287644,-7.153946,-0.021227,-0.036889,0.020990,0.080679,0.986967,2.526851,782.04,42.70,highres
11.855486,66927647654,6.751361,-0.314176,-7.303065,-0.044458,-0.051328,0.027798,0.092042,0.974549,2.520557,782.05,42.70,highres
11.867886,66927667011,6.854307,-0.270552,-7.233772,-0.042523,-0.017457,0.022619,0.096093,0.987972,2.516176,782.05,42.70,highres
11.900665,66927691840,6.729814,-0.152575,-7.022956,-0.002343,0.014951,-0.001812,0.096093,0.987972,2.516176,782.05,42.70,highres
11.906953,66927709153,6.692705,-0.216018,-7.046896,0.037167,0.018653,0.005250,0.096093,0.987972,2.516176,782.05,42.70,highres
11.928273,66927730083,6.809881,-0.454779,-7.224675,0.043994,0.017197,-0.003793,0.096093,0.987972,2.516176,782.05,42.70,highres
11.953863,66927750167,6.875803,-0.374349,-7.241021,-0.000799,0.005528,-0.027972,0.096093,0.987972,2.516176,782.05,42.70,highres
11.976614,66927765929,6.798046,-0.253127,-7.155828,-0.044705,-0.007683,-0.033889,0.096093,0.987972,2.516176,782.05,42.70,highres
11.999597,66927792362,6.624473,-0.053220,-7.051685,-0.062010,-0.029353,-0.034477,0.093894,0.973805,2.519708,782.05,42.70,highres
12.018725,66927807725,6.621254,-0.001762,-7.152564,-0.031482,-0.035460,-0.030136,0.103006,0.972272,2.527108,782.05,42.70,highres
12.031842,66927830725,6.690603,0.045143,-7.260059,0.020368,0.006747,-0.025473,0.103006,0.972272,2.527108,782.05,42.70,highres
12.052401,66927849976,6.669724,0.109314,-7.069689,0.045703,0.043092,-0.025161,0.103006,0.972272,2.527108,782.05,42.70,highres
12.067340,66927867156,6.576692,0.103747,-6.979614,0.032791,0.020448,-0.013715,0.103006,0.972272,2.527108,782.05,42.70,highres
12.101307,66927891997,6.624473,-0.001746,-7.257577,-0.002648,-0.042671,0.008503,0.103006,0.972272,2.527108,782.06,42.70,highres
12.106239,66927907058,6.698405,-0.079717,-7.367266,-0.032471,-0.044698,0.021890,0.103006,0.972272,2.527108,782.06,42.70,highres
12.130326,66927925977,6.708502,-0.069978,-7.276962,-0.062806,-0.025556,0.024159,0.100254,0.975165,2.518384,782.06,42.70,highres
12.150720,66927950072,6.598625,0.014430,-7.139429,-0.035368,-0.001962,0.021756,0.087723,0.976307,2.517220,782.06,42.70,highres
12.167871,66927965706,6.581209,-0.047578,-7.198067,0.024789,0.021883,0.035741,0.087723,0.976307,2.517220,782.06,42.70,highres
12.201099,66927987928,6.793394,-0.211233,-7.186018,0.058752,0.068401,0.045845,0.087723,0.976307,2.517220,782.06,42.70,highres
12.208341,66928007812,6.913737,-0.287942,-7.011388,0.008465,0.041146,0.027340,0.087723,0.976307,2.517220,782.06,42.70,highres
12.231005,66928030035,6.779490,-0.197779,-6.909992,-0.058534,-0.037130,0.006444,0.087723,0.976307,2.517220,782.06,42.70,highres
12.261845,66928053281,6.637641,-0.195668,-7.151040,-0.017801,-0.058406,0.009211,0.087723,0.976307,2.517220,782.07,42.70,highres
12.277287,66928070112,6.665833,-0.150002,-7.409156,0.045883,-0.010892,0.014313,0.092499,0.977838,2.525016,782.07,42.70,highres
12.286555,66928090255,6.744178,-0.195668,-7.346159,0.088685,0.079091,0.017135,0.097901,0.992884,2.514446,782.07,42.70,highres
12.286555,66928110610,6.813607,-0.315373,-7.092385,0.052991,0.081012,0.007572,0.097901,0.992884,2.514446,782.07,42.70,highres
12.328083,66928125665,6.856329,-0.337115,-7.056389,-0.003706,0.015319,-0.007860,0.097901,0.992884,2.514446,782.07,42.70,highres
12.351077,66928153148,6.781527,-0.270486,-7.326285,-0.083586,-0.060705,-0.022013,0.097901,0.992884,2.514446,782.07,42.70,highres
12.370609,66928175928,6.686552,-0.160293,-7.220955,-0.069738,-0.007975,-0.011544,0.097901,0.992884,2.514446,782.07,42.70,highres
12.400904,66928192845,6.675511,-0.070979,-6.981405,-0.018143,0.027413,-0.006673,0.097901,0.992884,2.514446,782.07,42.70,highres
12.407791,66928212999,6.673780,-0.064677,-6.924056,0.047146,0.040302,0.000335,0.095900,0.975633,2.520157,782.06,42.70,highres
12.431371,66928226659,6.777006,-0.169895,-7.048137,0.069748,0.039385,0.001863,0.104978,0.982170,2.509591,782.06,42.70,highres
12.461431,66928253360,6.924274,-0.300225,-7.047642,0.023323,0.001817,-0.027765,0.104978,0.982170,2.509591,782.06,42.70,highres
12.467748,66928266277,6.783367,-0.154033,-7.036303,-0.021014,-0.033398,-0.049095,0.104978,0.982170,2.509591,782.06,42.70,highres
12.501164,66928275450,6.610138,0.001421,-7.098367,-0.047724,-0.055930,-0.053949,0.104978,0.982170,2.509591,782.05,42.70,highres
12.511104,66928312934,6.527912,0.073682,-7.194825,-0.003003,-0.032794,0.013872,0.104978,0.982170,2.509591,782.05,42.70,highres
12.527873,66928330351,6.763492,-0.146245,-7.214011,0.067533,0.017356,0.004336,0.104978,0.982170,2.509591,782.05,42.70,highres
12.552301,66928348354,6.855504,-0.232777,-7.236031,0.083798,0.031444,-0.028986,0.104978,0.982170,2.509591,782.05,42.70,highres
12.567718,66928377006,6.626092,-0.143694,-7.265246,-0.006553,0.004190,-0.028107,0.104259,0.967596,2.523518,782.05,42.70,highres
12.599762,66928393185,6.566388,-0.103326,-7.247657,-0.067624,-0.032769,0.003782,0.104259,0.967596,2.523518,782.05,42.70,highres
12.612761,66928413138,6.685376,-0.068732,-7.331648,-0.061345,-0.013726,0.018820,0.104259,0.967596,2.523518,782.05,42.70,highres
12.629054,66928432928,6.782266,-0.134129,-7.217913,-0.015655,0.046072,0.010585,0.104259,0.967596,2.523518,782.05,42.70,highres
12.660032,66928455836,6.790223,-0.114915,-6.899030,0.046064,0.052122,-0.015335,0.104259,0.967596,2.523518,782.05,42.70,highres
12.667696,66928470804,6.723828,-0.115466,-6.878113,0.040121,-0.003681,-0.017074,0.104259,0.967596,2.523518,782.05,42.70,highres
12.699506,66928493613,6.748750,-0.281361,-7.144955,-0.008742,-0.060651,-0.003941,0.092522,0.973025,2.516733,782.05,42.70,highres
12.707614,66928515954,6.767522,-0.268931,-7.353520,-0.037046,-0.036363,-0.022236,0.099852,0.973945,2.505406,782.05,42.70,highres
12.734430,66928536715,6.690084,-0.082296,-7.277276,-0.033024,0.026882,-0.016514,0.099852,0.973945,2.505406,782.05,42.70,highres
12.761358,66928550566,6.652004,0.001845,-7.076823,-0.025852,0.047326,-0.008828,0.099852,0.973945,2.505406,782.05,42.70,highres
12.774847,66928569045,6.672761,0.025040,-6.935413,0.002470,0.018059,0.001567,0.099852,0.973945,2.505406,782.05,42.70,highres
12.801477,66928590922,6.765920,-0.103960,-7.131214,0.011654,-0.025987,-0.001336,0.099852,0.973945,2.505406,782.05,42.70,highres
12.819668,66928610853,6.698835,0.004573,-7.362726,-0.006756,-0.016864,-0.018479,0.099852,0.973945,2.505406,782.05,42.70,highres
12.828698,66928633371,6.512453,0.088277,-7.238477,-0.020476,0.024841,0.015773,0.094004,0.973692,2.519439,782.05,42.70,highres
12.861258,66928653519,6.635680,-0.065695,-7.114186,0.008087,0.033453,0.050981,0.112356,0.974458,2.522339,782.05,42.70,highres
12.868589,66928668394,6.849369,-0.308332,-7.134373,0.043176,0.026252,0.033322,0.112356,0.974458,2.522339,782.05,42.70,highres
12.899264,66928688310,6.888482,-0.214783,-7.351255,0.026988,0.007315,-0.018601,0.112356,0.974458,2.522339,782.06,42.70,highres
12.906967,66928708765,6.672356,-0.102299,-7.280322,-0.036237,0.014645,-0.027154,0.112356,0.974458,2.522339,782.06,42.70,highres
12.936680,66928731635,6.562709,0.000349,-7.013647,-0.085009,0.004537,0.006285,0.112356,0.974458,2.522339,782.06,42.70,highres
12.961056,66928753777,6.794454,-0.220807,-6.899659,-0.035546,0.011983,0.045889,0.112356,0.974458,2.522339,782.06,42.70,highres
12.967997,66928768399,7.002011,-0.343745,-6.938743,0.020384,0.018954,0.011515,0.100516,0.975409,2.519819,782.06,42.70,highres
13.001195,66928788361,6.879802,-0.139962,-7.048341,0.050811,0.021059,-0.052199,0.100435,0.981732,2.524735,782.06,42.70,highres
13.007208,66928808336,6.633467,0.035944,-7.041405,0.023628,0.007620,-0.054948,0.100435,0.981732,2.524735,782.06,42.70,highres
13.029398,66928833828,6.476039,0.201752,-7.019363,-0.058880,-0.045026,0.000354,0.100435,0.981732,2.524735,782.06,42.70,highres
13.051401,66928848797,6.561693,0.134560,-7.083648,-0.051756,-0.053553,0.042851,0.100435,0.981732,2.524735,782.05,42.70,highres
13.070131,66928870974,6.879444,-0.142998,-7.177374,0.022835,-0.015334,0.056156,0.100435,0.981732,2.524735,782.05,42.70,highres
13.094667,66928888519,6.956024,-0.302174,-7.159063,0.074338,0.018310,0.008592,0.100435,0.981732,2.524735,782.05,42.70,highres
13.109058,66928908531,6.691976,-0.120683,-7.221586,0.041382,-0.004720,-0.040689,0.096751,0.977874,2.521686,782.05,42.70,highres
13.128472,66928926453,6.498145,-0.004583,-7.291290,-0.012572,-0.032011,-0.010923,0.097138,0.978384,2.522004,782.05,42.70,highres
13.151732,66928947029,6.586697,-0.074561,-7.416553,-0.044740,-0.036424,0.034756,0.097138,0.978384,2.522004,782.05,42.70,highres
13.166934,66928966862,6.839897,-0.253295,-7.245484,-0.017057,0.026665,0.054542,0.097138,0.978384,2.522004,782.05,42.70,highres
13.194691,66928989467,6.925337,-0.279243,-7.053198,0.031025,0.065669,0.026876,0.097138,0.978384,2.522004,782.05,42.70,highres
13.207462,66929015001,6.788056,-0.216795,-6.860999,0.024224,-0.010446,-0.037298,0.097138,0.978384,2.522004,782.06,42.70,highres
13.231040,66929033992,6.586969,-0.003907,-7.228370,-0.028173,-0.068158,-0.024264,0.097138,0.978384,2.522004,782.06,42.70,highres
13.251211,66929048827,6.559849,-0.009306,-7.388056,-0.056082,-0.039722,0.017755,0.097138,0.978384,2.522004,782.06,42.70,highres
13.271296,66929069107,6.733551,-0.145227,-7.183426,-0.038538,0.021804,0.043262,0.100565,1.010388,2.532179,782.06,42.70,highres
13.285521,66929084406,6.939411,-0.286514,-6.976776,0.000645,0.037677,0.024757,0.100565,1.010388,2.532179,782.06,42.70,highres
13.285521,66929107376,6.853853,-0.166986,-7.123155,0.052199,0.002821,-0.046001,0.100565,1.010388,2.532179,782.06,42.70,highres
13.330303,66929132211,6.553256,0.008572,-7.410918,0.012946,-0.012844,-0.036612,0.100565,1.010388,2.532179,782.06,42.70,highres
13.360689,66929151358,6.532300,-0.038855,-7.263562,-0.045087,0.016172,0.012563,0.100565,1.010388,2.532179,782.06,42.70,highres
13.380046,66929166788,6.700706,-0.075059,-7.014633,-0.062942,0.031666,0.041472,0.100565,1.010388,2.532179,782.06,42.70,highres
13.400038,66929196999,6.885694,-0.149471,-6.852651,-0.009217,-0.011645,0.013990,0.098198,0.976380,2.520022,782.06,42.70,highres
13.400038,66929208756,6.888464,-0.108165,-6.995381,0.025470,-0.018844,-0.010116,0.115700,0.979480,2.518746,782.06,42.70,highres
13.427870,66929230654,6.698690,-0.073569,-7.160616,0.055285,-0.003344,-0.021919,0.115700,0.979480,2.518746,782.06,42.70,highres
13.451375,66929256568,6.638905,-0.172244,-7.185841,0.016222,-0.009763,0.010491,0.115700,0.979480,2.518746,782.06,42.70,highres
13.466796,66929271088,6.745831,-0.241136,-7.223009,-0.014448,-0.024451,0.007466,0.115700,0.979480,2.518746,782.06,42.70,highres
13.494096,66929288745,6.790280,-0.186010,-7.297182,-0.018811,-0.019694,-0.010820,0.115700,0.979480,2.518746,782.06,42.70,highres
13.506127,66929314395,6.696424,-0.034325,-7.236012,-0.008355,0.030447,-0.009813,0.115700,0.979480,2.518746,782.06,42.70,highres
13.539177,66929331409,6.636490,-0.021521,-7.045385,-0.019797,0.021328,-0.002153,0.098717,0.973108,2.518825,782.07,42.70,highres
13.561893,66929355143,6.704199,-0.114031,-7.039094,-0.019430,-0.020175,0.019588,0.093537,0.970286,2.514363,782.07,42.70,highres
13.566654,66929369398,6.774299,-0.183392,-7.235779,0.009586,-0.006736,0.011952,0.093537,0.970286,2.514363,782.07,42.70,highres
13.601505,66929388912,6.802133,-0.169333,-7.309547,0.034631,0.034498,-0.008817,0.093537,0.970286,2.514363,782.07,42.70,highres
13.607248,66929409153,6.725025,-0.073569,-7.122311,-0.018623,0.029511,-0.014653,0.093537,0.970286,2.514363,782.06,42.70,highres
13.635875,66929425205,6.674226,0.001770,-7.030437,-0.064329,-0.016510,-0.010344,0.093537,0.970286,2.514363,782.06,42.70,highres
13.660805,66929444942,6.678340,-0.001746,-6.934374,-0.077964,-0.047041,0.006087,0.093537,0.970286,2.514363,782.06,42.70,highres
13.667498,66929469303,6.759727,-0.143373,-7.025717,0.010270,-0.024541,0.022044,0.100240,0.978688,2.521587,782.06,42.70,highres
13.701040,66929487012,6.801474,-0.163243,-7.253696,0.062606,0.002825,-0.003063,0.106985,0.959628,2.535488,782.05,42.70,highres
13.708879,66929511788,6.720419,-0.102673,-7.277478,0.034614,0.026878,-0.013495,0.106985,0.959628,2.535488,782.05,42.70,highres
13.729032,66929534765,6.600173,-0.030547,-7.161036,-0.014273,-0.004058,0.012184,0.106985,0.959628,2.535488,782.05,42.70,highres
13.760040,66929556647,6.774448,-0.215921,-7.315331,-0.020977,-0.019895,0.021745,0.106985,0.959628,2.535488,782.05,42.70,highres
13.766712,66929574625,6.871065,-0.267147,-7.374443,-0.006986,0.006634,-0.001775,0.106985,0.959628,2.535488,782.05,42.70,highres
13.795037,66929595051,6.807372,-0.178035,-7.224025,-0.001879,0.035981,-0.022191,0.106985,0.959628,2.535488,782.05,42.70,highres
13.807342,66929616935,6.644549,-0.080752,-7.034163,-0.006260,0.030115,-0.016490,0.099174,0.979291,2.517384,782.05,42.70,highres
13.828410,66929632127,6.690844,-0.136111,-6.994874,-0.008039,0.010995,-0.004541,0.094118,0.981585,2.506716,782.05,42.70,highres
13.861107,66929654850,6.835136,-0.167348,-7.134275,-0.023190,-0.008639,-0.012577,0.094118,0.981585,2.506716,782.06,42.70,highres
13.868254,66929674680,6.815063,-0.061129,-7.030241,-0.038552,-0.006483,-0.030077,0.094118,0.981585,2.506716,782.06,42.70,highres
13.899799,66929689375,6.680732,0.052124,-6.965029,-0.037451,-0.015593,-0.033863,0.094118,0.981585,2.506716,782.06,42.70,highres
13.913602,66929709431,6.552650,0.115564,-7.079217,0.003172,-0.020786,-0.015537,0.094118,0.981585,2.506716,782.06,42.70,highres
13.928829,66929729187,6.681931,0.032968,-7.245607,0.039518,0.009757,0.007982,0.094118,0.981585,2.506716,782.06,42.70,highres
13.951403,66929744402,6.781019,-0.059737,-7.161503,0.040625,0.030025,0.017352,0.100393,0.976686,2.525532,782.06,42.70,highres
13.966695,66929764736,6.795120,-0.085406,-6.942158,0.001645,0.017393,0.009509,0.099618,0.967322,2.524333,782.06,42.70,highres
14.000492,66929792048,6.675079,-0.019333,-6.965111,-0.018058,-0.049223,-0.001583,0.099618,0.967322,2.524333,782.06,42.70,highres
14.008126,66929807351,6.632515,0.014091,-7.128388,0.005615,-0.051940,0.008898,0.099618,0.967322,2.524333,782.05,42.70,highres
14.028084,66929828137,6.688650,-0.046677,-7.340724,0.039819,-0.009340,0.023098,0.099618,0.967322,2.524333,782.05,42.70,highres
14.061977,66929854685,6.755775,-0.168634,-7.308104,0.036816,0.028556,0.010150,0.099618,0.967322,2.524333,782.05,42.70,highres
14.068362,66929869412,6.742088,-0.200528,-7.244552,0.024673,0.019089,0.010016,0.099618,0.967322,2.524333,782.05,42.70,highres
14.095939,66929894555,6.759472,-0.267035,-7.318926,-0.007074,-0.005355,0.004468,0.096979,0.979856,2.521353,782.06,42.70,highres
14.107146,66929917186,6.772809,-0.188510,-7.376641,-0.031077,0.017687,-0.011740,0.098914,0.983351,2.515499,782.06,42.70,highres
14.138460,66929934662,6.729172,-0.044771,-7.178087,-0.045295,0.033944,-0.005242,0.098914,0.983351,2.515499,782.06,42.70,highres
14.161131,66929957310,6.677465,-0.018482,-6.901961,-0.034843,0.019397,0.009571,0.098914,0.983351,2.515499,782.06,42.70,highres
14.166443,66929972432,6.749548,-0.124844,-6.878621,0.002935,0.013441,0.010217,0.098914,0.983351,2.515499,782.06,42.70,highres
14.200944,66929994724,6.869868,-0.159757,-6.983452,0.044718,0.013117,-0.015526,0.098914,0.983351,2.515499,782.06,42.70,highres
14.207946,66930015450,6.806657,-0.064657,-7.040280,0.016090,-0.010486,-0.031336,0.098914,0.983351,2.515499,782.06,42.70,highres
14.230541,66930037407,6.662778,0.016209,-7.019364,-0.034556,-0.039016,-0.022416,0.097692,0.977408,2.524077,782.06,42.70,highres
14.261585,66930057323,6.590178,0.034219,-7.056976,-0.023367,-0.048986,0.004432,0.098551,0.976947,2.515320,782.05,42.70,highres
14.275453,66930072181,6.674319,-0.028340,-7.195905,0.018270,-0.030699,0.017696,0.098551,0.976947,2.515320,782.05,42.70,highres
14.293877,66930097677,6.826436,-0.130414,-7.339221,0.044701,0.007353,0.003245,0.098551,0.976947,2.515320,782.05,42.70,highres
14.293877,66930112854,6.754995,-0.089894,-7.282281,0.020254,0.010343,-0.011715,0.098551,0.976947,2.515320,782.05,42.70,highres
14.334470,66930137215,6.595526,-0.002952,-7.165295,-0.022110,-0.007314,0.004658,0.098551,0.976947,2.515320,782.05,42.70,highres
14.360559,66930152280,6.587612,-0.017513,-7.189260,-0.018038,-0.012747,0.023684,0.098551,0.976947,2.515320,782.05,42.70,highres
14.367389,66930172098,6.788651,-0.153163,-7.311384,0.003409,0.018205,0.035086,0.089797,0.976746,2.521285,782.05,42.70,highres
14.397439,66930186224,6.850716,-0.175259,-7.150704,0.003785,0.037761,0.022328,0.098946,0.983297,2.520275,782.05,42.70,highres
14.407530,66930206223,6.765579,-0.080650,-6.968519,-0.011177,0.014033,-0.002393,0.098946,0.983297,2.520275,782.06,42.70,highres
14.429190,66930227310,6.591450,-0.026261,-7.173012,-0.004152,-0.029338,-0.002393,0.098946,0.983297,2.520275,782.06,42.70,highres
14.450670,66930250517,6.683611,-0.080624,-7.393888,0.006538,0.003343,0.023569,0.098946,0.983297,2.520275,782.06,42.70,highres
14.466239,66930270239,6.814805,-0.178910,-7.174980,-0.003686,0.049048,0.028921,0.098946,0.983297,2.520275,782.06,42.70,highres
14.501991,66930289796,6.786706,-0.113623,-6.891439,-0.024310,0.023502,0.011352,0.098946,0.983297,2.520275,782.05,42.85,highres
14.507111,66930305773,6.733405,-0.114269,-6.913922,-0.010078,-0.012548,0.015434,0.098602,0.981438,2.520020,782.05,42.85,highres
14.535256,66930327320,6.728616,-0.122209,-7.202587,0.021174,-0.020812,0.001105,0.080171,0.979053,2.518667,782.05,42.85,highres
14.561893,66930347733,6.666941,-0.013115,-7.259298,0.025475,0.021058,0.005854,0.080171,0.979053,2.518667,782.05,42.85,highres
14.568810,66930367547,6.685079,-0.067616,-7.003144,-0.006290,0.037551,0.031816,0.080171,0.979053,2.518667,782.05,43.00,highres
14.595114,66930390390,6.679704,-0.066959,-6.873196,-0.001078,-0.001000,0.059677,0.080171,0.979053,2.518667,782.05,43.00,highres
14.612723,66930408116,6.954726,-0.382684,-7.127911,0.017556,-0.027799,0.075392,0.080171,0.979053,2.518667,782.05,43.00,highres
14.629769,66930425620,6.948214,-0.242920,-7.314198,0.043068,-0.009966,0.003175,0.080171,0.979053,2.518667,782.05,43.00,highres
14.656466,66930455961,6.688371,-0.098065,-7.140444,0.028473,0.023047,-0.020709,0.096062,0.976244,2.521255,782.05,43.00,highres
14.668543,66930472537,6.622681,-0.147790,-7.097778,-0.001102,-0.022777,0.002191,0.094462,0.984515,2.530687,782.05,43.00,highres
14.694821,66930492564,6.706084,-0.247642,-7.348489,-0.003005,-0.034941,0.009694,0.094462,0.984515,2.530687,782.05,43.00,highres
14.707719,66930507609,6.797420,-0.232733,-7.517623,0.007455,0.016782,0.000051,0.094462,0.984515,2.530687,782.05,43.00,highres
14.737131,66930527389,6.772881,-0.118748,-7.227776,0.001957,0.071455,-0.010029,0.094462,0.984515,2.530687,782.06,43.00,highres
14.760860,66930547751,6.766303,-0.215600,-7.015279,-0.017591,0.041828,0.001272,0.094462,0.984515,2.530687,782.06,43.00,highres
14.766620,66930575135,6.796849,-0.314176,-7.004999,-0.034203,0.001002,-0.003104,0.094462,0.984515,2.530687,782.06,43.00,highres
14.801124,66930592802,6.772737,-0.182326,-7.061091,-0.030070,-0.004423,-0.026130,0.098927,0.979157,2.517177,782.06,43.00,highres
14.817398,66930612781,6.759258,-0.090075,-7.025114,-0.029806,-0.003437,-0.020411,0.087862,0.979582,2.510941,782.05,43.00,highres
14.829799,66930628033,6.748791,-0.051163,-7.085725,-0.020645,-0.004293,-0.018581,0.087862,0.979582,2.510941,782.05,43.00,highres
14.857282,66930648174,6.706298,0.050942,-7.086843,-0.024065,0.001939,-0.014180,0.087862,0.979582,2.510941,782.05,43.00,highres
14.866198,66930668181,6.669538,0.053464,-7.022868,-0.013441,0.013075,-0.002956,0.087862,0.979582,2.510941,782.05,43.00,highres
14.894688,66930696899,6.823183,-0.198063,-6.955921,0.010213,-0.004063,0.006333,0.087862,0.979582,2.510941,782.06,43.00,highres
14.909742,66930712891,6.835075,-0.197209,-7.102393,0.010235,-0.023214,-0.016251,0.087862,0.979582,2.510941,782.06,43.00,highres
14.928829,66930734312,6.734344,-0.152003,-7.244253,0.002262,-0.011553,-0.017514,0.096578,0.978830,2.523102,782.06,43.00,highres
14.961881,66930757720,6.682518,-0.077193,-7.146357,0.000575,0.029600,-0.000263,0.099800,0.970525,2.524422,782.06,43.00,highres
14.978071,66930773474,6.770638,-0.116726,-7.020499,0.016022,0.024380,0.002017,0.099800,0.970525,2.524422,782.06,43.00,highres
15.002743,66930797773,6.831670,-0.082378,-7.147126,-0.013599,-0.035199,-0.032567,0.099800,0.970525,2.524422,782.06,43.00,highres
15.007295,66930813052,6.691067,0.094408,-7.205433,-0.034403,-0.051061,-0.033571,0.099800,0.970525,2.524422,782.06,43.00,highres
15.030075,66930835382,6.481899,0.156214,-7.185656,-0.032666,-0.028830,0.015537,0.099800,0.970525,2.524422,782.06,43.00,highres
15.060801,66930853170,6.579122,0.032310,-7.120655,0.010557,0.021400,0.049688,0.099800,0.970525,2.524422,782.07,43.00,highres
15.071160,66930873530,6.774700,-0.027483,-7.130089,0.070532,0.055114,0.045112,0.098589,0.979239,2.518957,782.07,43.00,highres
15.095489,66930893314,6.841097,-0.058028,-7.145004,0.051413,0.043490,0.034577,0.087127,0.992154,2.524307,782.07,43.00,highres
15.107952,66930914853,6.761924,-0.219803,-7.091681,-0.015911,-0.001002,0.039209,0.087127,0.992154,2.524307,782.07,43.00,highres
15.130524,66930933622,6.713609,-0.190033,-7.064473,-0.046168,-0.031654,0.035796,0.087127,0.992154,2.524307,782.06,43.00,highres
15.155703,66930955685,6.803385,-0.137068,-7.102661,-0.029554,-0.015086,0.037854,0.087127,0.992154,2.524307,782.06,43.00,highres
15.168079,66930970894,6.838464,-0.196303,-7.045518,0.021954,0.022020,0.030698,0.087127,0.992154,2.524307,782.06,43.00,highres
15.199807,66930998186,6.811213,-0.270233,-7.078742,0.064164,0.028596,0.008588,0.087127,0.992154,2.524307,782.06,43.00,highres
15.207183,66931013620,6.826109,-0.272703,-7.148726,0.023251,0.003124,-0.001176,0.102946,0.982669,2.519908,782.06,43.00,highres
15.228235,66931033516,6.779897,-0.199978,-7.183360,-0.029154,-0.020052,0.004959,0.093591,0.970196,2.522324,782.06,43.00,highres
15.250794,66931056091,6.772706,-0.161640,-7.096244,-0.045323,-0.010091,0.004360,0.093591,0.970196,2.522324,782.06,43.00,highres
15.267588,66931071126,6.738166,-0.100295,-6.935466,-0.003807,-0.000016,0.002921,0.093591,0.970196,2.522324,782.06,43.00,highres
15.295383,66931098596,6.843769,-0.277680,-7.112009,0.072735,-0.005154,0.001425,0.093591,0.970196,2.522324,782.06,43.00,highres
15.295383,66931114329,6.915509,-0.416012,-7.306307,0.069441,-0.000815,-0.023331,0.093591,0.970196,2.522324,782.06,43.00,highres
15.336736,66931133911,6.820080,-0.370549,-7.353453,0.005079,0.001958,-0.050851,0.093591,0.970196,2.522324,782.06,43.00,highres
15.360390,66931150598,6.673313,-0.175887,-7.220971,-0.050311,-0.006202,-0.046649,0.098763,0.978282,2.517664,782.06,43.00,highres
15.370844,66931170568,6.698878,-0.072593,-7.131751,-0.060218,-0.006693,-0.011075,0.095982,0.982896,2.539923,782.05,43.00,highres
15.399714,66931191033,6.869868,-0.184895,-7.012182,-0.026076,0.020326,0.006322,0.095982,0.982896,2.539923,782.05,43.00,highres
15.413602,66931211077,6.880187,-0.144425,-6.845797,0.001047,0.033276,-0.031705,0.095982,0.982896,2.539923,782.05,43.00,highres
15.427851,66931231137,6.738194,-0.047234,-6.742846,0.017127,0.000867,-0.046003,0.095982,0.982896,2.539923,782.05,43.00,highres
15.453323,66931246966,6.708810,-0.104260,-6.884218,0.034950,-0.034530,-0.038730,0.095982,0.982896,2.539923,782.05,43.00,highres
15.467637,66931264060,6.770376,-0.175872,-7.230050,0.045334,-0.051328,-0.038730,0.095982,0.982896,2.539923,782.05,43.00,highres
15.494022,66931283852,6.742980,-0.085540,-7.361721,0.019678,-0.034530,-0.047893,0.098066,0.980027,2.522515,782.05,43.00,highres
15.507148,66931311054,6.640035,0.114367,-7.152236,-0.020790,-0.002766,-0.033236,0.103245,0.977130,2.522465,782.05,43.00,highres
15.532645,66931327963,6.600614,0.119049,-6.982500,-0.015027,-0.001295,-0.012538,0.103245,0.977130,2.522465,782.06,43.00,highres
15.551500,66931353815,6.745375,-0.049628,-7.109143,0.032006,-0.013254,0.006274,0.103245,0.977130,2.522465,782.06,43.00,highres
15.569044,66931368344,6.756149,-0.069978,-7.203711,0.042962,-0.009396,-0.009371,0.103245,0.977130,2.522465,782.06,43.00,highres
15.594600,66931388996,6.669736,0.028736,-7.243876,0.037238,0.001511,-0.016605,0.103245,0.977130,2.522465,782.06,43.00,highres
15.617063,66931408430,6.620882,-0.019702,-7.242016,0.015707,-0.008873,0.010140,0.103245,0.977130,2.522465,782.06,43.00,highres
15.630036,66931431536,6.707070,-0.165742,-7.350948,0.005702,-0.023839,0.032940,0.099794,0.975517,2.517621,782.06,43.00,highres
15.657329,66931446909,6.800139,-0.249162,-7.462347,0.013569,-0.006735,0.023884,0.109871,0.983773,2.532703,782.06,43.00,highres
15.666352,66931468828,6.725563,-0.104376,-7.332288,-0.009149,0.037714,-0.004781,0.109871,0.983773,2.532703,782.06,43.00,highres
15.695647,66931491657,6.631519,0.063391,-7.019044,-0.039841,0.039085,0.013690,0.109871,0.983773,2.532703,782.06,43.00,highres
15.707917,66931514041,6.657673,-0.037539,-6.890765,-0.027349,0.014161,0.050067,0.109871,0.983773,2.532703,782.06,43.00,highres
15.730404,66931535717,6.857144,-0.275798,-7.025277,0.015218,0.012165,0.036363,0.109871,0.983773,2.532703,782.06,43.00,highres
15.752367,66931551409,6.929721,-0.328315,-7.120563,0.044781,0.020258,0.004123,0.109871,0.983773,2.532703,782.06,43.00,highres
15.766294,66931574959,6.797468,-0.244791,-7.148365,0.005715,0.016406,-0.016623,0.100973,0.973383,2.516839,782.05,43.00,highres
15.794145,66931594374,6.662904,-0.100912,-7.104796,-0.034032,0.003505,-0.002558,0.080860,0.990170,2.526940,782.05,43.00,highres
15.808014,66931612856,6.709464,-0.162151,-7.031335,-0.042019,0.000901,0.031825,0.080860,0.990170,2.526940,782.05,43.00,highres
15.829768,66931634066,6.924932,-0.283053,-6.973876,-0.026137,0.006704,0.014721,0.080860,0.990170,2.526940,782.05,43.00,highres
15.860014,66931654690,6.911482,-0.167072,-6.941947,-0.006004,-0.005131,-0.029260,0.080860,0.990170,2.526940,782.06,43.00,highres
15.867167,66931674003,6.715040,0.010396,-7.007566,0.005987,-0.015365,-0.035460,0.080860,0.990170,2.526940,782.06,43.00,highres
15.896084,66931695229,6.567653,0.040531,-7.102219,0.005323,-0.027810,-0.001467,0.080860,0.990170,2.526940,782.06,43.00,highres
15.910677,66931705696,6.615222,-0.044932,-7.230723,0.003322,-0.036349,0.021514,0.099772,0.977638,2.514638,782.06,43.00,highres
15.934291,66931731798,6.902189,-0.409940,-7.292291,-0.024610,-0.023840,0.033963,0.100232,0.978566,2.521461,782.06,43.00,highres
15.961057,66931749020,6.894182,-0.319800,-7.248520,-0.032116,-0.010464,-0.002254,0.100232,0.978566,2.521461,782.06,43.00,highres
15.967757,66931764825,6.776179,-0.187796,-7.215444,-0.027905,-0.009201,-0.028085,0.100232,0.978566,2.521461,782.06,43.00,highres
15.994855,66931787158,6.604782,-0.022755,-7.231512,-0.008531,0.031966,-0.034428,0.100232,0.978566,2.521461,782.06,43.00,highres
16.008013,66931807045,6.690938,-0.145079,-7.126957,0.005934,0.061071,0.006780,0.100232,0.978566,2.521461,782.05,43.00,highres
16.032556,66931829051,6.946479,-0.267491,-6.893674,-0.005344,0.057108,0.011894,0.100232,0.978566,2.521461,782.05,43.00,highres
16.052034,66931845312,6.977570,-0.194599,-6.794480,-0.009234,0.022936,-0.024524,0.100232,0.978566,2.521461,782.05,43.00,highres
16.067289,66931874430,6.660127,0.110847,-6.844689,-0.028569,-0.064575,-0.048804,0.105885,0.969307,2.521699,782.05,43.00,highres
16.100961,66931891929,6.539000,0.219256,-7.020329,-0.029262,-0.081243,-0.015551,0.105885,0.969307,2.521699,782.05,43.00,highres
16.107336,66931914147,6.609213,0.103776,-7.240637,-0.006753,-0.044218,0.022802,0.105885,0.969307,2.521699,782.05,43.00,highres
16.128699,66931932291,6.710231,-0.002944,-7.257689,0.027732,0.004320,0.028080,0.105885,0.969307,2.521699,782.05,43.00,highres
16.162618,66931957305,6.787190,-0.119220,-7.216188,0.031141,-0.004086,0.015977,0.105885,0.969307,2.521699,782.05,43.00,highres
16.168125,66931974213,6.776350,-0.201043,-7.302018,0.011093,-0.028282,-0.005147,0.105885,0.969307,2.521699,782.06,43.00,highres
16.195157,66931994797,6.677255,-0.109742,-7.461750,-0.018806,-0.029631,-0.008479,0.098193,0.974437,2.518110,782.06,43.00,highres
16.207305,66932014763,6.596856,-0.101119,-7.439870,-0.034031,0.025491,0.023252,0.107458,0.971108,2.511920,782.06,43.00,highres
16.229015,66932029249,6.705873,-0.212427,-7.221666,-0.029491,0.067487,0.044358,0.107458,0.971108,2.511920,782.06,43.00,highres
16.250403,66932058097,6.951475,-0.271447,-6.759423,-0.018031,0.044426,0.005575,0.107458,0.971108,2.511920,782.05,43.00,highres
16.267925,66932072174,6.924236,-0.152096,-6.743825,-0.010265,0.003910,-0.023855,0.107458,0.971108,2.511920,782.05,43.00,highres
16.296063,66932095290,6.716714,-0.065327,-6.876266,0.010084,-0.030976,-0.024469,0.107458,0.971108,2.511920,782.05,43.00,highres
16.296063,66932114228,6.714876,-0.161017,-7.094810,0.023049,-0.017104,-0.006640,0.107458,0.971108,2.511920,782.05,43.00,highres
16.336446,66932136981,6.843706,-0.231409,-7.131375,0.016149,-0.009628,-0.010256,0.107458,0.971108,2.511920,782.05,43.00,highres
16.350058,66932152232,6.869218,-0.216189,-7.163746,0.000603,-0.023322,-0.029935,0.096844,0.973617,2.518686,782.05,43.00,highres
16.374733,66932169218,6.808920,-0.155302,-7.161521,-0.010895,-0.036404,-0.045640,0.096844,0.973617,2.518686,782.05,43.00,highres
16.394829,66932191707,6.600555,-0.005366,-7.246189,-0.003379,-0.039417,-0.043307,0.096844,0.973617,2.518686,782.05,43.00,highres
16.417858,66932208216,6.581302,-0.001011,-7.410372,0.003190,-0.026800,-0.019824,0.096844,0.973617,2.518686,782.05,43.00,highres
16.428772,66932230140,6.682104,-0.088447,-7.476750,0.004877,0.023952,-0.001762,0.096844,0.973617,2.518686,782.05,43.00,highres
16.450104,66932252641,6.775627,-0.090817,-7.255072,-0.016426,0.057421,-0.014805,0.096844,0.973617,2.518686,782.05,43.00,highres
16.468180,66932274523,6.703537,0.024531,-6.984394,-0.043326,0.029252,-0.018295,0.093941,0.978708,2.520745,782.05,43.00,highres
16.497180,66932292917,6.711067,0.041347,-6.933691,-0.042052,-0.001568,-0.004615,0.085403,0.990607,2.511797,782.04,42.65,highres
16.510387,66932314385,6.755867,-0.004069,-7.015984,-0.011690,-0.006160,-0.003918,0.085403,0.990607,2.511797,782.04,42.65,highres
16.520458,66932329470,6.785546,0.003847,-7.045077,0.022623,0.009006,-0.008886,0.085403,0.990607,2.511797,782.04,42.65,highres
16.562275,66932352820,6.741740,-0.034503,-7.015774,0.032800,0.011059,-0.011947,0.085403,0.990607,2.511797,782.04,42.65,highres
16.567717,66932371695,6.688088,0.014498,-7.114954,0.017824,-0.014389,-0.011217,0.085403,0.990607,2.511797,782.05,42.30,highres
16.596733,66932394394,6.662934,0.032529,-7.201746,-0.002735,-0.019562,0.010102,0.085403,0.990607,2.511797,782.05,42.30,highres
16.608594,66932412421,6.726281,-0.070442,-7.200371,-0.007940,-0.008245,0.021094,0.097199,0.971015,2.522327,782.05,42.30,highres
16.635405,66932429638,6.807109,-0.157861,-7.132834,-0.010539,-0.005351,0.015553,0.099800,0.970525,2.524422,782.05,42.30,highres
16.662197,66932457960,6.774727,-0.099799,-7.146774,-0.014498,-0.021288,-0.014285,0.099800,0.970525,2.524422,782.06,42.30,highres
16.666911,66932469792,6.708997,-0.044675,-7.178289,-0.005856,-0.016506,-0.015735,0.099800,0.970525,2.524422,782.06,42.30,highres
16.700607,66932492121,6.567139,0.065949,-7.255184,0.016053,0.020159,0.009051,0.099800,0.970525,2.524422,782.06,42.30,highres
16.707338,66932512249,6.703384,-0.064312,-7.162015,0.014477,0.039692,0.037559,0.099800,0.970525,2.524422,782.06,42.30,highres
16.729738,66932535921,6.942659,-0.274746,-7.018396,-0.009617,0.014784,0.017045,0.099800,0.970525,2.524422,782.05,42.30,highres
16.755848,66932552180,6.929828,-0.201956,-6.967967,-0.026343,-0.017343,-0.025097,0.096101,0.976987,2.520909,782.05,42.30,highres
16.767299,66932572357,6.663537,0.025254,-7.007840,-0.024640,-0.039713,-0.035225,0.099778,0.970561,2.521238,782.05,42.30,highres
16.794631,66932592782,6.568428,0.046702,-7.169659,0.008571,-0.023487,-0.006128,0.099778,0.970561,2.521238,782.05,42.30,highres
16.807594,66932612273,6.740587,-0.114269,-7.262366,0.039849,0.011945,0.018872,0.099778,0.970561,2.521238,782.06,42.30,highres
16.833378,66932627475,6.842800,-0.177327,-7.255797,0.034959,0.025880,0.015105,0.099778,0.970561,2.521238,782.06,42.30,highres
16.852049,66932646714,6.844586,-0.134324,-7.161521,0.006132,0.023981,-0.005391,0.099778,0.970561,2.521238,782.06,42.30,highres
16.866601,66932668085,6.686795,0.009942,-7.047622,-0.028270,-0.006428,-0.023142,0.099778,0.970561,2.521238,782.06,42.30,highres
16.902515,66932689992,6.623225,0.043792,-7.185559,-0.022672,-0.032084,-0.008782,0.101138,0.978429,2.516634,782.05,42.30,highres
16.907733,66932707633,6.680791,0.013188,-7.267154,0.002554,-0.002981,0.012874,0.099489,0.967540,2.505227,782.05,42.30,highres
16.928012,66932727532,6.748793,-0.010125,-7.095638,0.029200,0.047333,0.020928,0.099489,0.967540,2.505227,782.05,42.30,highres
16.953710,66932742627,6.802401,-0.118557,-6.941857,0.038620,0.050688,0.018396,0.099489,0.967540,2.505227,782.05,42.30,highres
16.967266,66932759895,6.806739,-0.136005,-7.086781,0.017853,0.000451,0.004234,0.099489,0.967540,2.505227,782.05,42.30,highres
16.995848,66932782778,6.756609,-0.103934,-7.299047,-0.018483,-0.044111,-0.012720,0.099489,0.967540,2.505227,782.05,42.30,highres
17.007368,66932805691,6.652862,-0.038890,-7.261074,-0.018317,-0.005020,-0.011330,0.099489,0.967540,2.505227,782.05,42.30,highres
17.030322,66932822583,6.671159,-0.027770,-7.133738,0.002174,0.034354,0.003682,0.093829,0.974764,2.519665,782.05,42.30,highres
17.062000,66932847552,6.775593,-0.066970,-7.045117,0.013880,0.037860,0.019007,0.103936,0.976439,2.516735,782.04,42.30,highres
17.067066,66932862987,6.843856,-0.148948,-7.037302,0.005709,0.016631,0.018836,0.103936,0.976439,2.516735,782.04,42.30,highres
17.094230,66932892582,6.849780,-0.133474,-7.054079,-0.028773,-0.025696,-0.015515,0.103936,0.976439,2.516735,782.04,42.30,highres
17.106818,66932913393,6.705736,-0.012671,-7.125751,-0.040398,-0.038723,-0.018358,0.103936,0.976439,2.516735,782.04,42.30,highres
17.132045,66932932955,6.633419,0.056909,-7.159664,-0.018863,-0.015053,0.006164,0.103936,0.976439,2.516735,782.05,42.30,highres
17.151578,66932959027,6.717278,-0.066023,-7.109910,0.026452,0.022648,0.027874,0.103936,0.976439,2.516735,782.05,42.30,highres
17.168684,66932972896,6.833956,-0.213624,-7.119916,0.041984,0.021367,0.015046,0.101196,0.975603,2.517988,782.05,42.30,highres
17.199623,66932992780,6.874044,-0.206973,-7.179193,0.008317,0.003086,-0.019898,0.090340,0.967647,2.519615,782.05,42.30,highres
17.213034,66933013557,6.740417,-0.075680,-7.184120,-0.036777,-0.016937,-0.030949,0.090340,0.967647,2.519615,782.06,42.30,highres
17.227939,66933035322,6.625201,0.000699,-7.185026,-0.045754,-0.018723,-0.004222,0.090340,0.967647,2.519615,782.06,42.30,highres
17.260123,66933051485,6.660327,-0.017981,-7.193769,-0.018759,0.009333,0.012748,0.090340,0.967647,2.519615,782.06,42.30,highres
17.266254,66933070586,6.827220,-0.109546,-7.106114,0.013918,0.042519,0.011304,0.090340,0.967647,2.519615,782.06,42.30,highres
17.295255,66933092952,6.827741,-0.054431,-6.995587,0.022378,0.033874,-0.018283,0.090340,0.967647,2.519615,782.06,42.30,highres
17.300307,66933113107,6.710764,0.083718,-6.992596,-0.015350,-0.015222,-0.022975,0.098620,0.973188,2.518487,782.06,42.30,highres
17.300307,66933130675,6.585999,0.106502,-7.078697,-0.026303,-0.033742,0.005050,0.088681,0.980428,2.510828,782.06,42.30,highres
17.360389,66933153559,6.681931,0.016209,-7.135478,0.013579,0.009761,0.033983,0.088681,0.980428,2.510828,782.06,42.30,highres
17.366724,66933175791,6.837554,-0.065332,-7.049839,0.040538,0.024824,0.027103,0.088681,0.980428,2.510828,782.06,42.30,highres
17.399340,66933193074,6.880407,-0.114989,-7.032359,0.011024,-0.017141,0.000421,0.088681,0.980428,2.510828,782.06,42.30,highres
17.406710,66933213616,6.722310,-0.062370,-7.137423,-0.025953,-0.061616,-0.007309,0.088681,0.980428,2.510828,782.06,42.30,highres
17.427766,66933233605,6.612643,-0.083189,-7.351122,-0.019961,-0.043622,0.012437,0.088681,0.980428,2.510828,782.06,42.30,highres
17.450529,66933247788,6.691837,-0.153788,-7.446711,0.002582,0.007416,0.023242,0.093145,0.975883,2.523018,782.05,42.30,highres
17.466657,66933267733,6.875399,-0.270758,-7.246127,0.011441,0.060463,0.026653,0.077303,0.994681,2.533326,782.05,42.30,highres
17.500014,66933293151,6.910567,-0.210033,-6.884097,-0.012655,0.037188,-0.010801,0.077303,0.994681,2.533326,782.05,42.30,highres
17.507236,66933315300,6.771710,-0.079555,-6.856566,-0.003865,-0.013117,-0.037069,0.077303,0.994681,2.533326,782.05,42.30,highres
17.536483,66933320999,6.729115,-0.030295,-6.908291,0.008575,-0.021718,-0.038860,0.077303,0.994681,2.533326,782.05,42.30,highres
17.550760,66933347876,6.680624,-0.017088,-7.257137,0.017550,-0.005205,-0.016413,0.077303,0.994681,2.533326,782.05,42.30,highres
17.566631,66933371578,6.712154,0.023941,-7.173543,-0.005893,0.019259,-0.001124,0.077303,0.994681,2.533326,782.05,42.30,highres
17.596018,66933387846,6.741199,0.018622,-6.972772,-0.010209,0.019810,0.009243,0.090463,0.978526,2.522798,782.05,42.30,highres
17.607006,66933408115,6.757345,0.017406,-7.109144,0.010089,-0.020278,-0.004797,0.088551,0.976262,2.525045,782.06,42.30,highres
17.629021,66933422200,6.732037,-0.006813,-7.263240,0.022847,-0.034391,-0.011526,0.088551,0.976262,2.525045,782.06,42.30,highres
17.661647,66933443384,6.658625,-0.047018,-7.309600,0.013065,-0.005574,0.000806,0.088551,0.976262,2.525045,782.06,42.30,highres
17.667417,66933463542,6.720238,-0.032870,-7.088794,-0.025075,0.026103,0.016728,0.088551,0.976262,2.525045,782.06,42.30,highres
17.696981,66933496854,6.792795,-0.035669,-6.960093,-0.032334,0.004824,0.019470,0.088551,0.976262,2.525045,782.06,42.30,highres
17.712501,66933513453,6.860344,-0.090744,-6.911631,-0.001176,-0.009892,0.009894,0.088551,0.976262,2.525045,782.06,42.30,highres
17.731321,66933534051,6.797254,-0.130494,-7.040763,0.021859,-0.026891,-0.000711,0.100284,0.973307,2.516468,782.06,42.30,highres
17.760020,66933552998,6.770081,-0.162126,-7.217592,0.019584,-0.014693,-0.007861,0.101451,0.985753,2.527099,782.06,42.30,highres
17.767089,66933576568,6.730069,-0.072056,-7.257885,-0.010150,0.000744,-0.004236,0.101451,0.985753,2.527099,782.06,42.30,highres
17.800443,66933595987,6.698690,-0.069978,-7.146251,-0.034077,-0.007385,0.012149,0.101451,0.985753,2.527099,782.06,42.30,highres
17.806502,66933611638,6.739890,-0.107462,-7.097547,-0.030503,-0.010573,0.016508,0.101451,0.985753,2.527099,782.06,42.30,highres
17.827795,66933636895,6.853354,-0.200651,-7.089038,0.019727,0.017081,0.003438,0.101451,0.985753,2.527099,782.06,42.30,highres
17.860374,66933653827,6.872402,-0.152996,-7.086680,0.046516,0.034643,-0.033459,0.101451,0.985753,2.527099,782.05,42.30,highres
17.867775,66933676093,6.697633,0.038380,-7.134055,0.000844,0.001807,-0.033938,0.096076,0.978083,2.519789,782.05,42.30,highres
17.894499,66933691322,6.582555,0.025469,-7.172407,-0.042901,-0.029520,-0.000551,0.100232,0.978566,2.521461,782.05,42.30,highres
17.906980,66933714103,6.660188,-0.012009,-7.261168,-0.058443,-0.011674,0.021783,0.100232,0.978566,2.521461,782.05,42.30,highres
17.928275,66933731994,6.799915,0.009713,-7.169527,-0.014962,0.034933,0.020459,0.100232,0.978566,2.521461,782.06,42.30,highres
17.951750,66933755821,6.768119,0.009027,-6.964301,-0.016212,0.033187,0.007880,0.100232,0.978566,2.521461,782.06,42.30,highres
17.967269,66933773138,6.781788,-0.101420,-6.938626,-0.027084,-0.021166,0.001612,0.100232,0.978566,2.521461,782.06,42.30,highres
17.994621,66933793681,6.742714,-0.031132,-7.234983,-0.039642,-0.046667,-0.016318,0.100232,0.978566,2.521461,782.06,42.30,highres
18.007784,66933814673,6.691854,0.029032,-7.268001,-0.030621,0.004744,-0.000705,0.095057,0.982521,2.522133,782.05,42.30,highres
18.030660,66933831319,6.705768,0.035473,-7.126210,-0.016768,0.023328,0.007588,0.098684,0.980230,2.508245,782.05,42.30,highres
18.060407,66933852297,6.732518,0.011198,-6.975074,-0.006681,-0.001099,0.013372,0.098684,0.980230,2.508245,782.05,42.30,highres
18.067914,66933867572,6.790099,-0.085755,-7.038185,0.008554,-0.016562,0.010853,0.098684,0.980230,2.508245,782.05,42.30,highres
18.100812,66933893862,6.787951,-0.066112,-7.203742,0.021459,0.013762,-0.011277,0.098684,0.980230,2.508245,782.04,42.30,highres
18.107418,66933915956,6.712538,-0.001057,-7.068082,0.000012,0.021238,-0.002745,0.098684,0.980230,2.508245,782.04,42.30,highres
18.128671,66933930736,6.699573,0.011611,-6.974947,-0.021822,-0.011552,0.007412,0.098684,0.980230,2.508245,782.04,42.30,highres
18.151492,66933953701,6.750107,-0.053980,-7.118948,-0.001994,-0.031165,0.012308,0.101353,0.978262,2.518858,782.04,42.30,highres
18.173901,66933977621,6.815426,-0.106418,-7.282094,0.026833,-0.002661,0.003506,0.106979,0.975830,2.515374,782.04,42.30,highres
18.199477,66933991340,6.784204,-0.090455,-7.238282,0.019863,0.013897,-0.007791,0.106979,0.975830,2.515374,782.04,42.30,highres
18.217330,66934015206,6.671864,0.061563,-7.131669,-0.024286,-0.003367,-0.012537,0.106979,0.975830,2.515374,782.04,42.30,highres
18.229625,66934031595,6.587081,0.095832,-7.094921,-0.028202,-0.008162,0.015785,0.106979,0.975830,2.515374,782.04,42.30,highres
18.261412,66934055378,6.747257,-0.098451,-7.190491,0.005246,0.013472,0.031442,0.106979,0.975830,2.515374,782.06,42.30,highres
18.266516,66934076328,6.882434,-0.105881,-7.139050,0.022372,0.037794,0.004827,0.106979,0.975830,2.515374,782.06,42.30,highres
18.295700,66934095147,6.809669,0.001521,-6.997996,0.005560,0.024849,-0.010160,0.094005,0.979358,2.525788,782.06,42.30,highres
18.301606,66934116343,6.651682,0.033307,-6.932837,-0.016081,-0.015315,0.005209,0.105686,0.994133,2.513907,782.06,42.30,highres
18.301606,66934132077,6.697711,-0.033923,-7.012513,-0.006575,-0.027500,0.020860,0.105686,0.994133,2.513907,782.06,42.30,highres
18.352484,66934149020,6.842980,-0.176054,-7.155458,0.008651,-0.021034,0.024816,0.105686,0.994133,2.513907,782.06,42.30,highres
18.376969,66934171534,6.900991,-0.222004,-7.185754,0.025801,0.006709,-0.004186,0.105686,0.994133,2.513907,782.06,42.30,highres
18.395301,66934191387,6.769479,-0.149491,-7.163360,0.026233,0.002835,-0.020700,0.105686,0.994133,2.513907,782.06,42.30,highres
18.418040,66934212508,6.651426,-0.017403,-7.295225,-0.001630,-0.020557,-0.026012,0.105686,0.994133,2.513907,782.06,42.30,highres
18.429470,66934232082,6.646020,0.036559,-7.352144,-0.029848,-0.009181,0.002346,0.105635,0.976060,2.523196,782.06,42.30,highres
18.452694,66934246783,6.720909,-0.029268,-7.286316,-0.021565,0.019366,0.018037,0.097368,0.981504,2.529258,782.06,42.30,highres
18.466888,66934269786,6.858811,-0.100361,-7.073608,0.001225,0.052680,0.005939,0.097368,0.981504,2.529258,782.06,42.30,highres
18.500373,66934292253,6.772906,-0.014914,-6.981059,-0.017110,0.012297,-0.020203,0.097368,0.981504,2.529258,782.06,42.50,highres
18.507307,66934307054,6.660862,0.050641,-7.031510,-0.032553,-0.014990,-0.012725,0.097368,0.981504,2.529258,782.06,42.50,highres
18.528281,66934329313,6.671506,0.010714,-7.113888,-0.032678,-0.013739,0.012317,0.097368,0.981504,2.529258,782.06,42.50,highres
18.560101,66934352135,6.792820,-0.036499,-7.084024,0.002644,0.023077,0.020847,0.097368,0.981504,2.529258,782.06,42.50,highres
18.567745,66934371468,6.821674,-0.004375,-6.986081,0.025495,0.039390,0.001312,0.098052,0.976158,2.523352,782.06,42.70,highres
18.600776,66934394254,6.759740,-0.025687,-6.884098,0.019502,0.009661,0.000420,0.103293,0.993240,2.510312,782.06,42.70,highres
18.607893,66934412050,6.788226,-0.113904,-6.990737,0.003181,-0.038642,0.004205,0.103293,0.993240,2.510312,782.06,42.70,highres
18.631922,66934431748,6.830166,-0.140376,-7.235717,-0.015004,-0.046758,-0.008701,0.103293,0.993240,2.510312,782.06,42.70,highres
18.662677,66934456957,6.736292,-0.036126,-7.283209,-0.007066,-0.003940,-0.015736,0.103293,0.993240,2.510312,782.05,42.70,highres
18.673581,66934474332,6.680387,-0.000650,-7.240448,-0.005566,0.009047,-0.006707,0.103293,0.993240,2.510312,782.05,42.70,highres
18.699751,66934492029,6.686561,-0.107617,-7.152207,-0.011080,0.009725,0.013657,0.103293,0.993240,2.510312,782.05,42.70,highres
18.719360,66934514229,6.815152,-0.160217,-7.173590,-0.016442,0.014588,0.004154,0.095978,0.976347,2.519874,782.05,42.70,highres
18.727838,66934537027,6.815000,-0.029043,-7.079767,-0.015461,0.020611,-0.015755,0.103095,0.975629,2.513664,782.05,42.70,highres
18.760483,66934552787,6.742324,0.053384,-7.003654,-0.018159,0.001447,-0.022489,0.103095,0.975629,2.513664,782.05,42.70,highres
