t_wall_s,t_boot_us,ax,ay,az,gx,gy,gz,mx,my,mz,abs_pressure,temperature,source
14.268373,11059492992,-0.044759,0.273327,-9.778347,-0.000028,0.000269,0.001000,0.793408,0.648567,2.650421,778.93,15.00,highres
14.274680,11059504985,-0.053864,0.278841,-9.781893,0.000412,0.000847,-0.000347,0.793408,0.648567,2.650421,778.93,15.00,highres
14.282964,11059522390,-0.059476,0.277271,-9.764751,0.000044,-0.001185,0.000705,0.793408,0.648567,2.650421,778.93,15.00,highres
14.290098,11059529722,-0.043959,0.280062,-9.756073,-0.000888,0.002398,0.000353,0.801863,0.654554,2.634793,778.93,15.00,highres
14.290098,11059539882,-0.056752,0.281345,-9.787423,0.001386,-0.003569,0.000205,0.801863,0.654554,2.634793,778.93,15.00,highres
14.290098,11059550383,-0.063731,0.280015,-9.778769,-0.001703,0.001757,0.001635,0.812330,0.671386,2.634369,778.93,15.00,highres
14.330782,11059560158,-0.046972,0.268711,-9.781893,0.002179,-0.001723,-0.000140,0.812330,0.671386,2.634369,778.93,15.00,highres
14.336968,11059565138,-0.036007,0.264269,-9.772693,0.000768,0.001611,0.001316,0.812330,0.671386,2.634369,778.93,15.00,highres
14.346354,11059575836,-0.060565,0.269657,-9.780179,0.000611,0.000236,-0.000056,0.812330,0.671386,2.634369,778.93,15.00,highres
14.355446,11059590326,-0.050406,0.274186,-9.785484,-0.000865,0.000908,0.001330,0.812330,0.671386,2.634369,778.93,15.00,highres
14.361929,11059599999,-0.063574,0.264115,-9.781542,0.001538,-0.001273,0.000535,0.812330,0.671386,2.634369,778.92,15.00,highres
14.377395,11059612815,-0.052714,0.277982,-9.774713,-0.001623,-0.000222,0.001621,0.812330,0.671386,2.634369,778.92,15.00,highres
14.386231,11059618148,-0.063574,0.276580,-9.775908,0.001252,-0.000094,-0.000406,0.812330,0.671386,2.634369,778.92,15.00,highres
14.395933,11059630251,-0.051052,0.275935,-9.783090,-0.001370,0.002527,0.002105,0.812330,0.671386,2.634369,778.92,15.00,highres
14.399719,11059637378,-0.056273,0.277099,-9.786521,-0.000362,0.000273,0.000894,0.812330,0.671386,2.634369,778.92,15.00,highres
14.414643,11059650355,-0.064352,0.269398,-9.784215,-0.001513,0.002546,0.001497,0.812330,0.671386,2.634369,778.92,15.00,highres
14.428721,11059660214,-0.061884,0.271510,-9.780343,0.000175,-0.000239,-0.000750,0.812330,0.671386,2.634369,778.92,15.00,highres
14.438171,11059666147,-0.058037,0.273588,-9.769473,0.000730,0.001688,0.001317,0.799588,0.652519,2.638442,778.92,15.00,highres
14.439971,11059674970,-0.057589,0.281368,-9.771826,0.000034,0.001065,0.001751,0.799588,0.652519,2.638442,778.92,15.00,highres
14.455400,11059692193,-0.060790,0.269509,-9.776102,-0.000119,0.000311,0.001160,0.800440,0.651488,2.639713,778.92,15.00,highres
14.468270,11059702154,-0.053557,0.281984,-9.773513,0.001328,-0.000323,-0.000033,0.800440,0.651488,2.639713,778.92,15.00,highres
14.473936,11059709739,-0.049118,0.270103,-9.771641,-0.000626,0.001439,0.000987,0.800440,0.651488,2.639713,778.92,15.00,highres
14.479038,11059719695,-0.058019,0.284193,-9.766391,0.001489,-0.002500,-0.000227,0.800440,0.651488,2.639713,778.92,15.00,highres
14.496352,11059730142,-0.050406,0.282565,-9.767529,-0.000148,0.001000,0.001316,0.800440,0.651488,2.639713,778.92,15.00,highres
14.508436,11059742856,-0.063820,0.276416,-9.775908,0.000932,-0.001791,-0.000538,0.800440,0.651488,2.639713,778.92,15.00,highres
14.514742,11059749560,-0.061676,0.288551,-9.775907,-0.001986,0.001058,0.001564,0.800440,0.651488,2.639713,778.92,15.00,highres
14.525314,11059759830,-0.053970,0.277360,-9.776687,0.000960,-0.001443,0.000307,0.800440,0.651488,2.639713,778.92,15.00,highres
14.537820,11059772685,-0.059689,0.279352,-9.770447,-0.001160,0.002929,0.002023,0.800440,0.651488,2.639713,778.92,15.00,highres
14.539107,11059780037,-0.052738,0.271854,-9.780384,0.001123,-0.001107,-0.000211,0.800440,0.651488,2.639713,778.92,15.00,highres
14.554884,11059789961,-0.062278,0.280811,-9.778023,-0.001675,0.001306,0.001316,0.800440,0.651488,2.639713,778.92,15.00,highres
14.561657,11059795301,-0.055960,0.278320,-9.780153,0.000253,-0.000928,0.001011,0.800440,0.651488,2.639713,778.92,15.00,highres
14.575612,11059802386,-0.050543,0.288671,-9.773651,0.000061,-0.002392,0.000448,0.799527,0.651161,2.640528,778.92,15.00,highres
14.581325,11059812332,-0.059117,0.285752,-9.778836,-0.001052,0.001050,0.000241,0.800557,0.654799,2.630250,778.92,15.00,highres
14.596155,11059822405,-0.059587,0.269798,-9.777115,0.001744,-0.000504,0.000593,0.800557,0.654799,2.630250,778.92,15.00,highres
14.605256,11059835059,-0.061125,0.269888,-9.780642,-0.000129,0.000199,0.000552,0.800557,0.654799,2.630250,778.92,15.00,highres
14.616119,11059845231,-0.055928,0.278974,-9.784056,-0.000781,0.000740,0.000564,0.800557,0.654799,2.630250,778.92,15.00,highres
14.628980,11059857927,-0.050406,0.284959,-9.768279,0.001068,-0.001144,-0.000367,0.800557,0.654799,2.630250,778.92,15.00,highres
14.637446,11059862588,-0.049209,0.281368,-9.779499,0.000404,-0.000654,0.001923,0.800557,0.654799,2.630250,778.92,15.00,highres
14.639153,11059875442,-0.061180,0.272989,-9.771120,0.000230,0.001311,0.000174,0.800557,0.654799,2.630250,778.92,15.00,highres
14.658669,11059890698,-0.057589,0.272989,-9.781893,-0.001284,0.002026,0.001951,0.800557,0.654799,2.630250,778.92,15.00,highres
14.668683,11059900856,-0.055030,0.274131,-9.785076,0.001220,-0.001006,-0.000530,0.800557,0.654799,2.630250,778.92,15.00,highres
14.675516,11059905838,-0.059408,0.287354,-9.772365,0.000035,0.002210,0.000999,0.800557,0.654799,2.630250,778.92,15.00,highres
14.680881,11059916209,-0.053949,0.280899,-9.772786,0.000463,0.000695,0.001011,0.800557,0.654799,2.630250,778.92,15.00,highres
14.695815,11059920523,-0.042253,0.272764,-9.782022,0.001074,-0.002174,0.000466,0.800557,0.654799,2.630250,778.92,15.00,highres
14.705265,11059935742,-0.049333,0.275644,-9.782132,0.000272,-0.000110,0.001390,0.800557,0.654799,2.630250,778.92,15.00,highres
14.714804,11059946393,-0.056383,0.280164,-9.779470,-0.000517,0.001759,0.002398,0.801477,0.650530,2.642682,778.92,15.00,highres
14.728640,11059951756,-0.057554,0.283312,-9.784648,-0.000758,0.001630,0.001908,0.790183,0.662165,2.632374,778.92,15.00,highres
14.738158,11059964194,-0.061156,0.273122,-9.779922,0.000310,-0.000355,0.000839,0.790183,0.662165,2.632374,778.92,15.00,highres
14.739938,11059977105,-0.053447,0.260356,-9.778703,0.000968,-0.001119,0.000381,0.790183,0.662165,2.632374,778.92,15.00,highres
14.755097,11059980644,-0.058060,0.267714,-9.769652,0.001408,-0.001453,-0.000536,0.790183,0.662165,2.632374,778.92,15.00,highres
14.763358,11059993300,-0.058701,0.281903,-9.786615,-0.001688,0.003008,0.000550,0.790183,0.662165,2.632374,778.91,15.00,highres
14.776207,11059998371,-0.059979,0.272394,-9.784558,0.000769,-0.000802,-0.000190,0.790183,0.662165,2.632374,778.91,15.00,highres
14.788319,11060009575,-0.073704,0.280312,-9.785737,-0.000758,0.001630,0.001602,0.790183,0.662165,2.632374,778.91,15.00,highres
14.794470,11060012995,-0.073939,0.264803,-9.778571,-0.000222,0.000558,0.001297,0.790183,0.662165,2.632374,778.91,15.00,highres
14.803436,11060025626,-0.058777,0.274179,-9.768698,-0.001229,0.001507,0.001768,0.790183,0.662165,2.632374,778.91,15.00,highres
14.814165,11060051317,-0.052092,0.273118,-9.773124,-0.001674,0.002546,0.002372,0.790183,0.662165,2.632374,778.91,15.00,highres
14.825547,11060056187,-0.054635,0.262823,-9.769311,0.000377,0.000146,-0.000361,0.790183,0.662165,2.632374,778.91,15.00,highres
14.836893,11060069317,-0.056463,0.271811,-9.774000,-0.002773,0.002622,0.003130,0.790183,0.662165,2.632374,778.91,15.00,highres
14.841801,11060081096,-0.052628,0.276393,-9.774337,0.002731,-0.001601,-0.001146,0.790183,0.662165,2.632374,778.91,15.00,highres
14.856034,11060090698,-0.053714,0.272982,-9.785010,-0.001063,0.002546,0.001908,0.801835,0.654990,2.641071,778.91,15.00,highres
14.862107,11060096234,-0.049799,0.279566,-9.778872,0.001702,0.000086,0.000847,0.812985,0.655439,2.636039,778.91,15.00,highres
14.875404,11060106190,-0.058227,0.276153,-9.779986,-0.000874,-0.000194,0.001198,0.812985,0.655439,2.636039,778.91,15.00,highres
14.879112,11060110976,-0.057148,0.284853,-9.777942,-0.002109,0.001935,0.001426,0.812985,0.655439,2.636039,778.91,15.00,highres
14.894983,11060122958,-0.055186,0.271785,-9.779470,0.000158,0.000103,-0.000230,0.812985,0.655439,2.636039,778.91,15.00,highres
14.903712,11060140670,-0.057580,0.277794,-9.769236,0.001444,-0.000749,-0.000107,0.812985,0.655439,2.636039,778.91,15.00,highres
14.914990,11060152991,-0.055617,0.280595,-9.775113,-0.000885,0.001667,0.001010,0.812985,0.655439,2.636039,778.91,15.00,highres
14.925228,11060158217,-0.052801,0.272607,-9.777870,0.001380,-0.003257,-0.000841,0.812985,0.655439,2.636039,778.91,15.00,highres
14.936948,11060170143,-0.056383,0.279588,-9.771581,-0.001519,0.002385,0.002046,0.812985,0.655439,2.636039,778.92,15.00,highres
14.938649,11060182154,-0.055402,0.287891,-9.784041,0.001686,-0.001752,0.000255,0.812985,0.655439,2.636039,778.92,15.00,highres
14.954646,11060194151,-0.051928,0.279433,-9.772620,-0.001392,0.000250,0.000404,0.812985,0.655439,2.636039,778.92,15.00,highres
14.967584,11060198099,-0.057338,0.281200,-9.763432,0.000891,-0.001058,-0.000393,0.812985,0.655439,2.636039,778.92,15.00,highres
14.974454,11060208319,-0.055186,0.280164,-9.773485,-0.001674,0.001324,0.002519,0.812985,0.655439,2.636039,778.92,15.00,highres
14.980633,11060221197,-0.063678,0.278651,-9.776692,0.000706,-0.000572,-0.001019,0.812985,0.655439,2.636039,778.92,15.00,highres
14.996110,11060233019,-0.062016,0.275711,-9.788537,-0.001022,0.002375,0.001996,0.802206,0.651086,2.640734,778.92,15.00,highres
15.005295,11060237922,-0.048681,0.267878,-9.781344,0.001075,-0.000328,0.000083,0.814074,0.645779,2.648236,778.92,15.00,highres
15.014400,11060248638,-0.058724,0.285387,-9.777892,-0.001192,0.003239,0.001250,0.814074,0.645779,2.648236,778.92,15.00,highres
15.030792,11060260995,-0.046849,0.286107,-9.779141,0.000769,-0.000656,0.000539,0.814074,0.645779,2.648236,778.92,15.00,highres
15.037388,11060270988,-0.058615,0.264999,-9.773007,-0.001432,0.002425,0.001481,0.814074,0.645779,2.648236,778.92,15.00,highres
15.046599,11060283155,-0.064591,0.284438,-9.779129,0.000780,-0.001610,0.000381,0.814074,0.645779,2.648236,778.92,15.00,highres
15.055538,11060289180,-0.064296,0.282444,-9.772842,-0.001674,0.001324,0.001297,0.814074,0.645779,2.648236,778.92,15.00,highres
15.062601,11060293080,-0.058777,0.269265,-9.782149,-0.000598,0.001703,0.000527,0.814074,0.645779,2.648236,778.92,15.00,highres
15.075349,11060310628,-0.056496,0.271898,-9.782677,-0.001841,0.003964,0.001395,0.814074,0.645779,2.648236,778.92,15.00,highres
15.083095,11060316087,-0.053484,0.269015,-9.787157,0.000452,-0.000388,0.000075,0.814074,0.645779,2.648236,778.92,15.00,highres
15.095898,11060325971,-0.055364,0.276742,-9.770240,-0.001369,0.001019,0.001297,0.814074,0.645779,2.648236,778.92,15.00,highres
15.104296,11060337276,-0.050398,0.273025,-9.781522,0.000853,0.000019,-0.000314,0.814074,0.645779,2.648236,778.92,15.00,highres
15.115025,11060343242,-0.052792,0.272982,-9.783060,0.000759,0.000320,-0.000318,0.814074,0.645779,2.648236,778.92,15.00,highres
15.125501,11060353927,-0.046214,0.275821,-9.787702,0.000248,0.001433,0.001710,0.798718,0.652704,2.641129,778.92,15.00,highres
15.137746,11060363637,-0.045177,0.281464,-9.796126,0.000944,-0.000943,0.000468,0.796072,0.656017,2.640662,778.92,15.00,highres
15.138991,11060372124,-0.047340,0.284751,-9.781925,-0.000937,0.001378,0.001423,0.796072,0.656017,2.640662,778.92,15.00,highres
15.154649,11060383174,-0.054981,0.272486,-9.779675,0.001425,-0.001678,-0.000439,0.796072,0.656017,2.640662,778.92,15.00,highres
15.161759,11060389511,-0.061252,0.275816,-9.771929,-0.001042,0.002310,0.001109,0.796072,0.656017,2.640662,778.92,15.00,highres
15.174949,11060403248,-0.051943,0.269854,-9.764913,0.002072,-0.000508,0.000042,0.796072,0.656017,2.640662,778.92,15.00,highres
15.179425,11060413417,-0.055186,0.277954,-9.779808,-0.000758,0.001324,0.001908,0.796072,0.656017,2.640662,778.92,15.00,highres
15.196962,11060419185,-0.047978,0.271251,-9.780746,0.001466,-0.001597,0.000819,0.796072,0.656017,2.640662,778.92,15.00,highres
15.204256,11060433875,-0.059974,0.280164,-9.772287,-0.000227,0.001615,0.000381,0.796072,0.656017,2.640662,778.92,15.00,highres
15.216699,11060443752,-0.058166,0.273008,-9.769868,0.000442,-0.001887,0.000455,0.796072,0.656017,2.640662,778.92,15.00,highres
15.228313,11060454424,-0.051248,0.277076,-9.781015,0.000158,0.001019,0.000686,0.796072,0.656017,2.640662,778.92,15.00,highres
15.237466,11060466489,-0.053528,0.285644,-9.773485,-0.000214,0.001222,0.000584,0.796072,0.656017,2.640662,778.92,15.00,highres
15.239025,11060476592,-0.056711,0.271457,-9.769024,0.001262,-0.001188,-0.000959,0.796072,0.656017,2.640662,778.92,15.00,highres
15.258619,11060483141,-0.051699,0.270553,-9.769279,0.000595,-0.001206,0.000729,0.796072,0.656017,2.640662,778.93,15.00,highres
15.263000,11060496644,-0.049721,0.269391,-9.774890,0.001416,-0.000113,-0.000356,0.798225,0.648319,2.637411,778.93,15.00,highres
15.275200,11060512502,-0.058465,0.271785,-9.775938,0.000047,0.001361,0.000953,0.798455,0.645120,2.628662,778.93,15.00,highres
15.281627,11060519998,-0.052257,0.273517,-9.775727,0.000463,-0.001575,-0.000381,0.798455,0.645120,2.628662,778.93,15.00,highres
15.295657,11060530660,-0.052792,0.271206,-9.771748,-0.000748,0.001167,0.001593,0.798455,0.645120,2.628662,778.93,15.00,highres
15.295657,11060536947,-0.057254,0.274071,-9.769241,0.000385,-0.000735,0.000026,0.798455,0.645120,2.628662,778.93,15.00,highres
15.295657,11060543514,-0.054384,0.270053,-9.772555,0.000888,-0.000827,-0.000430,0.798455,0.645120,2.628662,778.93,15.00,highres
15.295657,11060554285,-0.056295,0.282130,-9.784686,-0.000252,0.000749,-0.000274,0.798455,0.645120,2.628662,778.94,15.00,highres
15.338228,11060568287,-0.055868,0.270073,-9.775895,-0.001500,0.002546,0.001297,0.798455,0.645120,2.628662,778.94,15.00,highres
15.341352,11060573167,-0.052792,0.267754,-9.779226,-0.000279,0.001599,0.000849,0.798455,0.645120,2.628662,778.94,15.00,highres
15.355503,11060593016,-0.057081,0.279846,-9.779228,-0.001576,0.003976,0.002111,0.798455,0.645120,2.628662,778.94,15.00,highres
15.362505,11060603200,-0.051595,0.269390,-9.766301,0.000949,-0.000077,-0.000410,0.798455,0.645120,2.628662,778.94,15.00,highres
15.375292,11060613315,-0.056404,0.284385,-9.780666,-0.000286,0.000848,0.000675,0.798455,0.645120,2.628662,778.94,15.00,highres
15.379863,11060620566,-0.051589,0.282954,-9.773882,0.001686,-0.001730,0.000075,0.798455,0.645120,2.628662,778.94,15.00,highres
15.394798,11060626000,-0.045610,0.269391,-9.771091,-0.000309,0.000148,0.001225,0.798455,0.645120,2.628662,778.94,15.00,highres
15.403104,11060638434,-0.064763,0.281638,-9.776370,0.001200,-0.000923,-0.000590,0.799930,0.650979,2.638803,778.94,15.00,highres
15.417698,11060652163,-0.048893,0.278660,-9.771613,-0.002192,0.002586,0.001124,0.809412,0.645541,2.645866,778.93,15.00,highres
15.423742,11060658200,-0.053073,0.287556,-9.772923,0.000623,-0.000448,-0.001160,0.809412,0.645541,2.645866,778.93,15.00,highres
15.436713,11060671171,-0.054582,0.276573,-9.760317,-0.001836,0.002091,0.001914,0.809412,0.645541,2.645866,778.93,15.00,highres
15.439898,11060680840,-0.059187,0.290906,-9.778289,0.001380,0.000555,-0.000995,0.809412,0.645541,2.645866,778.93,15.00,highres
15.458234,11060691198,-0.047898,0.265959,-9.775254,-0.001878,0.002275,0.001908,0.809412,0.645541,2.645866,778.93,15.00,highres
15.468402,11060703562,-0.057741,0.269712,-9.771929,0.000984,-0.001284,-0.000090,0.809412,0.645541,2.645866,778.93,15.00,highres
15.474794,11060708978,-0.059499,0.267326,-9.772206,-0.001410,0.002261,0.001724,0.809412,0.645541,2.645866,778.93,15.00,highres
15.478716,11060718351,-0.063116,0.284753,-9.786902,0.001355,-0.000814,-0.000536,0.809412,0.645541,2.645866,778.92,15.00,highres
15.494819,11060729349,-0.057580,0.277770,-9.777077,-0.001063,0.002546,0.000992,0.809412,0.645541,2.645866,778.92,15.00,highres
15.508705,11060739804,-0.062072,0.278067,-9.775060,0.001418,-0.000145,-0.000745,0.809412,0.645541,2.645866,778.92,15.00,highres
15.515059,11060749568,-0.067157,0.270588,-9.791441,-0.001980,0.001324,0.001602,0.809412,0.645541,2.645866,778.92,15.00,highres
15.527659,11060759045,-0.061171,0.284686,-9.786608,0.001629,-0.001605,-0.000287,0.809412,0.645541,2.645866,778.92,15.00,highres
15.538239,11060773695,-0.063566,0.276573,-9.785577,-0.000483,-0.000524,0.001495,0.809412,0.645541,2.645866,778.92,15.00,highres
15.540008,11060779004,-0.059650,0.274080,-9.783836,-0.000123,-0.000896,0.000356,0.798542,0.656078,2.637036,778.92,15.00,highres
15.554717,11060789468,-0.059023,0.279249,-9.783484,-0.001222,0.002092,0.002370,0.797063,0.646520,2.638530,778.92,15.00,highres
15.561849,11060798731,-0.056444,0.276123,-9.767142,0.000769,0.000103,-0.000841,0.797063,0.646520,2.638530,778.93,15.00,highres
15.574809,11060809079,-0.064901,0.267526,-9.780138,-0.001695,0.001630,0.001613,0.797063,0.646520,2.638530,778.93,15.00,highres
15.579916,11060813980,-0.061171,0.266997,-9.776546,-0.001246,0.001850,0.001956,0.797063,0.646520,2.638530,778.93,15.00,highres
15.595886,11060821613,-0.062097,0.266289,-9.773974,0.000769,0.000565,-0.000074,0.797063,0.646520,2.638530,778.93,15.00,highres
15.606004,11060839595,-0.065273,0.272924,-9.778726,0.000929,-0.000493,-0.000376,0.797063,0.646520,2.638530,778.93,15.00,highres
15.618326,11060851488,-0.061677,0.284422,-9.778274,-0.001063,0.001827,0.001100,0.797063,0.646520,2.638530,778.93,15.00,highres
15.625409,11060861410,-0.053989,0.276059,-9.776067,0.000926,-0.002795,-0.001312,0.797063,0.646520,2.638530,778.93,15.00,highres
15.637645,11060871904,-0.058628,0.271806,-9.772951,-0.001642,0.003566,0.001875,0.797063,0.646520,2.638530,778.93,15.00,highres
15.639472,11060879662,-0.062368,0.277132,-9.778585,0.001283,0.000249,-0.000181,0.797063,0.646520,2.638530,778.93,15.00,highres
15.657290,11060889359,-0.055186,0.275826,-9.782015,-0.001960,0.002852,0.001870,0.797063,0.646520,2.638530,778.93,15.00,highres
15.668222,11060897020,-0.063562,0.283160,-9.775284,0.000029,0.001149,0.000992,0.797063,0.646520,2.638530,778.93,15.00,highres
15.675296,11060911364,-0.052011,0.273763,-9.783875,-0.001778,0.002342,0.001706,0.797063,0.646520,2.638530,778.93,15.00,highres
15.679196,11060921998,-0.052252,0.277472,-9.784914,0.002338,-0.000161,-0.000650,0.803927,0.652979,2.634243,778.93,15.00,highres
15.694797,11060932279,-0.057788,0.288981,-9.790773,-0.001563,0.002546,0.001878,0.794499,0.654216,2.650441,778.93,15.00,highres
15.705099,11060939075,-0.049468,0.297541,-9.770054,0.000405,-0.000337,-0.000251,0.794499,0.654216,2.650441,778.93,15.00,highres
15.715031,11060948945,-0.050121,0.267902,-9.772036,-0.001066,0.001655,0.002498,0.794499,0.654216,2.650441,778.93,15.00,highres
15.729432,11060958990,-0.060257,0.277015,-9.777836,0.001812,-0.000517,0.000054,0.794499,0.654216,2.650441,778.93,15.00,highres
15.738053,11060971920,-0.059963,0.268167,-9.773186,-0.002106,-0.000054,0.001640,0.794499,0.654216,2.650441,778.93,15.00,highres
15.739793,11060976488,-0.054637,0.273787,-9.764026,0.000842,0.000127,0.000085,0.794499,0.654216,2.650441,778.93,15.00,highres
15.755390,11060989974,-0.053273,0.265281,-9.775581,-0.000581,0.001817,0.002983,0.794499,0.654216,2.650441,778.93,15.00,highres
15.762714,11060999454,-0.055174,0.275349,-9.777974,0.001377,-0.000483,-0.000556,0.794499,0.654216,2.650441,778.93,15.00,highres
15.775324,11061004338,-0.052472,0.283149,-9.775667,0.001094,-0.001897,-0.000081,0.794499,0.654216,2.650441,778.93,15.00,highres
15.788366,11061017197,-0.049540,0.279292,-9.772528,0.001650,-0.000126,0.000360,0.794499,0.654216,2.650441,778.93,15.00,highres
15.794686,11061024090,-0.054936,0.271105,-9.776386,0.002555,-0.000367,0.000287,0.794499,0.654216,2.650441,778.93,15.00,highres
15.807501,11061036801,-0.049740,0.261631,-9.771957,0.000421,0.000603,0.000925,0.794499,0.654216,2.650441,778.92,15.00,highres
15.814187,11061049354,-0.053977,0.274152,-9.781566,-0.000015,0.000852,0.001556,0.794499,0.654216,2.650441,778.92,15.00,highres
15.828919,11061059068,-0.059120,0.279295,-9.773322,0.001466,-0.000227,0.000616,0.799367,0.653650,2.638637,778.92,15.00,highres
15.836973,11061064316,-0.051583,0.266934,-9.780861,0.001072,-0.000789,-0.000251,0.786562,0.650594,2.648525,778.92,15.00,highres
15.839820,11061069969,-0.062130,0.287687,-9.798173,-0.000150,0.002876,0.001887,0.786562,0.650594,2.648525,778.92,15.00,highres
15.855391,11061078859,-0.056298,0.272625,-9.758094,-0.000150,-0.000592,0.000035,0.786562,0.650594,2.648525,778.92,15.00,highres
15.863201,11061092091,-0.057612,0.336764,-9.723514,-0.000800,-0.000018,-0.000251,0.786562,0.650594,2.648525,778.92,15.00,highres
15.875302,11061101358,-0.044330,0.053699,-9.849635,0.015898,-0.004909,-0.001853,0.786562,0.650594,2.648525,778.92,15.00,highres
15.880146,11061106848,-0.042907,0.174840,-9.919820,0.031004,-0.000789,0.000360,0.786562,0.650594,2.648525,778.92,15.00,highres
15.896902,11061122516,-0.048922,0.170731,-9.853024,-0.015603,0.004870,0.001356,0.786562,0.650594,2.648525,778.92,15.00,highres
15.903548,11061131593,-0.051583,0.503986,-9.761216,-0.024817,-0.004008,0.002619,0.786562,0.650594,2.648525,778.92,15.00,highres
15.915505,11061142218,-0.076450,0.340962,-9.506359,-0.060931,-0.013312,-0.001778,0.786562,0.650594,2.648525,778.92,15.00,highres
15.929596,11061146801,-0.073856,0.204611,-9.656111,-0.028961,-0.015231,0.000543,0.786562,0.650594,2.648525,778.92,15.00,highres
15.937489,11061159855,-0.052084,0.243638,-9.872041,0.052970,-0.002471,0.000379,0.786562,0.650594,2.648525,778.92,15.00,highres
15.940319,11061181865,-0.048456,0.267881,-9.878388,-0.012389,0.010593,0.000443,0.786562,0.650594,2.648525,778.92,15.00,highres
15.953705,11061192108,-0.053818,0.312410,-9.766877,-0.023019,-0.003237,0.002022,0.786562,0.650594,2.648525,778.92,15.00,highres
15.961759,11061198974,-0.065646,0.294549,-9.745712,-0.011088,-0.002238,-0.000706,0.800625,0.650107,2.643186,778.92,15.00,highres
15.975973,11061209306,-0.058841,0.288592,-9.752714,-0.008505,0.000140,0.001435,0.796286,0.659165,2.645528,778.92,15.00,highres
15.989076,11061219833,-0.065948,0.286123,-9.760018,-0.003510,0.001349,-0.000862,0.796286,0.659165,2.645528,778.92,15.00,highres
15.995241,11061229010,-0.062346,0.279242,-9.772593,-0.003778,0.003833,0.000514,0.796286,0.659165,2.645528,778.92,15.00,highres
16.004295,11061238982,-0.061182,0.294361,-9.755981,-0.000510,0.000710,-0.000445,0.796286,0.659165,2.645528,778.92,15.00,highres
16.015214,11061248632,-0.059018,0.285134,-9.766840,-0.001768,0.003807,0.001933,0.796286,0.659165,2.645528,778.92,15.00,highres
16.025011,11061259092,-0.048085,0.289014,-9.784163,0.000841,-0.000074,-0.000021,0.796286,0.659165,2.645528,778.92,15.00,highres
16.038314,11061272486,-0.052154,0.282520,-9.772593,-0.000764,0.002722,0.001122,0.796286,0.659165,2.645528,778.92,15.00,highres
16.040752,11061282911,-0.053226,0.286569,-9.784523,-0.000455,-0.000400,-0.001610,0.796286,0.659165,2.645528,778.92,15.00,highres
16.053800,11061289496,-0.057709,0.295311,-9.774787,-0.000093,0.003336,0.001544,0.796286,0.659165,2.645528,778.92,15.00,highres
16.067116,11061299571,-0.044796,0.284130,-9.771984,0.001173,-0.000790,-0.000861,0.796286,0.659165,2.645528,778.92,15.00,highres
16.074456,11061309079,-0.053820,0.271680,-9.776189,-0.001752,0.003141,0.002097,0.796286,0.659165,2.645528,778.92,15.00,highres
16.079488,11061316963,-0.054080,0.279305,-9.769544,0.000117,0.001070,0.000267,0.796286,0.659165,2.645528,778.92,15.00,highres
16.097538,11061330247,-0.055712,0.281872,-9.769766,-0.000424,0.001897,0.002635,0.796286,0.659165,2.645528,778.92,15.00,highres
16.108638,11061339875,-0.060758,0.289544,-9.774384,0.003442,-0.000876,-0.000789,0.801904,0.652186,2.639725,778.92,15.00,highres
16.114093,11061349450,-0.069539,0.283729,-9.771990,-0.000455,0.001960,0.000665,0.787960,0.647428,2.652941,778.92,15.00,highres
16.128291,11061362155,-0.055174,0.275814,-9.792179,0.002134,-0.001053,-0.001167,0.787960,0.647428,2.652941,778.92,15.00,highres
16.138066,11061372042,-0.054208,0.282406,-9.780977,-0.000760,0.002672,0.000665,0.787960,0.647428,2.652941,778.92,15.00,highres
16.148556,11061380145,-0.056028,0.283729,-9.783448,0.001606,-0.000407,-0.000995,0.787960,0.647428,2.652941,778.92,15.00,highres
16.154946,11061395211,-0.052465,0.291904,-9.771154,0.000409,0.000444,0.000890,0.787960,0.647428,2.652941,778.92,15.00,highres
16.162399,11061399491,-0.054231,0.286008,-9.764001,0.001492,-0.000828,-0.001244,0.787960,0.647428,2.652941,778.92,15.00,highres
16.176717,11061409755,-0.060085,0.290789,-9.788088,-0.000761,0.002486,0.001530,0.787960,0.647428,2.652941,778.92,15.00,highres
16.189069,11061422875,-0.059154,0.282402,-9.782198,0.002454,-0.001239,0.000698,0.787960,0.647428,2.652941,778.92,15.00,highres
16.197113,11061428403,-0.047599,0.269688,-9.774795,0.000657,0.001563,0.001281,0.787960,0.647428,2.652941,778.92,15.00,highres
16.204824,11061439480,-0.054026,0.275448,-9.778548,0.001805,-0.001705,-0.000923,0.787960,0.647428,2.652941,778.92,15.00,highres
16.213655,11061449321,-0.052780,0.281335,-9.782763,-0.000761,0.002265,0.001582,0.787960,0.647428,2.652941,778.92,15.00,highres
16.229936,11061459232,-0.061883,0.285425,-9.778559,0.001193,-0.000639,0.000971,0.787960,0.647428,2.652941,778.92,15.00,highres
16.236569,11061469407,-0.053722,0.289458,-9.771047,-0.000150,0.001960,0.001887,0.787960,0.647428,2.652941,778.92,15.00,highres
16.238876,11061475615,-0.063972,0.288545,-9.777139,0.001168,0.000241,0.000398,0.796371,0.655057,2.640204,778.92,15.00,highres
16.258262,11061491778,-0.064530,0.260763,-9.783310,0.003795,0.002757,0.000826,0.804776,0.647013,2.633989,778.92,15.00,highres
16.268624,11061499477,-0.050758,0.271550,-9.768897,0.002693,0.000351,0.000348,0.804776,0.647013,2.633989,778.92,15.00,highres
16.276216,11061511896,-0.057656,0.264167,-9.776778,0.001213,0.002861,0.001738,0.804776,0.647013,2.633989,778.92,15.00,highres
16.280246,11061522205,-0.046275,0.280476,-9.773733,0.001377,-0.000457,0.000473,0.804776,0.647013,2.633989,778.92,15.00,highres
16.296482,11061535015,-0.059873,0.274152,-9.778667,-0.001184,0.002489,0.001911,0.804776,0.647013,2.633989,778.92,15.00,highres
16.296482,11061539399,-0.055614,0.282532,-9.784777,0.000347,-0.000313,-0.000738,0.804776,0.647013,2.633989,778.92,15.00,highres
16.296482,11061549663,-0.062003,0.283048,-9.770886,-0.000717,0.002396,0.002280,0.804776,0.647013,2.633989,778.92,15.00,highres
16.296482,11061560181,-0.058766,0.281335,-9.773187,0.001072,0.000738,0.000971,0.804776,0.647013,2.633989,778.92,15.00,highres
16.338323,11061571888,-0.052448,0.279021,-9.776818,-0.000899,0.001765,0.001248,0.804776,0.647013,2.633989,778.92,15.00,highres
16.348941,11061579679,-0.045598,0.272955,-9.770793,0.001380,-0.001097,-0.000965,0.804776,0.647013,2.633989,778.92,15.00,highres
16.354854,11061589495,-0.059291,0.285714,-9.783581,-0.001372,0.003182,0.001582,0.804776,0.647013,2.633989,778.92,15.00,highres
16.362437,11061599565,-0.058651,0.270791,-9.771760,0.002413,-0.000843,-0.000251,0.804776,0.647013,2.633989,778.92,15.00,highres
16.375567,11061604869,-0.059883,0.267129,-9.779250,0.000766,0.000433,0.000054,0.804776,0.647013,2.633989,778.93,15.00,highres
16.380398,11061622220,-0.050386,0.286123,-9.769594,0.002483,-0.000145,-0.000177,0.798624,0.650761,2.640500,778.93,15.00,highres
16.396709,11061628570,-0.059963,0.282056,-9.779465,0.001300,0.001541,0.001429,0.807353,0.664662,2.638985,778.93,15.00,highres
16.405830,11061640297,-0.055358,0.278375,-9.771740,0.002119,0.000258,0.000709,0.807353,0.664662,2.638985,778.93,15.00,highres
16.414430,11061649635,-0.055337,0.272296,-9.788089,0.000190,0.003963,0.001446,0.807353,0.664662,2.638985,778.93,15.00,highres
16.430477,11061664519,-0.047757,0.288752,-9.788745,0.001244,-0.000770,0.000245,0.807353,0.664662,2.638985,778.93,15.00,highres
16.439824,11061669343,-0.047003,0.291197,-9.783959,-0.000150,0.003793,0.001887,0.807353,0.664662,2.638985,778.93,15.00,highres
16.445160,11061682939,-0.064522,0.270505,-9.772329,0.002977,-0.001632,0.001668,0.807353,0.664662,2.638985,778.93,15.00,highres
16.455014,11061688869,-0.060993,0.279933,-9.771991,0.001356,0.000664,0.001982,0.807353,0.664662,2.638985,778.93,15.00,highres
16.468593,11061700212,-0.052122,0.286782,-9.772409,0.002630,-0.001156,0.000192,0.807353,0.664662,2.638985,778.93,15.00,highres
16.475323,11061704866,-0.048618,0.286068,-9.776043,0.002293,0.000127,0.000665,0.807353,0.664662,2.638985,778.93,15.00,highres
16.479842,11061714648,-0.055006,0.278423,-9.777457,0.001377,0.001960,0.000665,0.807353,0.664662,2.638985,778.93,15.00,highres
16.496617,11061719540,-0.054614,0.284646,-9.780369,0.003198,-0.000630,0.000066,0.807353,0.664662,2.638985,778.93,15.00,highres
16.503428,11061734818,-0.049189,0.280138,-9.776777,0.001128,0.002672,0.001310,0.807353,0.664662,2.638985,778.93,15.00,highres
16.514381,11061743728,-0.057301,0.284716,-9.779172,0.002196,0.000427,0.000256,0.807353,0.664662,2.638985,778.93,15.00,highres
16.529362,11061755160,-0.044624,0.276847,-9.773037,0.001394,0.001333,0.001557,0.797022,0.653991,2.640049,778.93,15.00,highres
16.538054,11061764948,-0.052407,0.276847,-9.776254,0.002395,0.001146,0.000055,0.799565,0.664297,2.632382,778.93,15.00,highres
16.539560,11061772664,-0.056371,0.276546,-9.782763,0.000344,0.001626,0.001538,0.799565,0.664297,2.632382,778.93,15.00,highres
16.555577,11061790340,-0.051583,0.280138,-9.780370,-0.000455,0.001584,0.000971,0.799565,0.664297,2.632382,778.93,15.00,highres
16.562469,11061800494,-0.060525,0.285517,-9.779114,0.002599,-0.000751,0.000360,0.799565,0.664297,2.632382,778.93,15.00,highres
16.574366,11061810476,-0.062223,0.278009,-9.779970,-0.001134,0.002707,0.001582,0.799565,0.664297,2.632382,778.93,15.00,highres
16.580540,11061822343,-0.051583,0.288517,-9.775580,0.001704,-0.000856,-0.000753,0.799565,0.664297,2.632382,778.93,15.00,highres
16.597186,11061828235,-0.047030,0.282974,-9.785203,-0.000071,0.001753,0.000892,0.799565,0.664297,2.632382,778.93,15.00,highres
16.606796,11061833114,-0.052546,0.271169,-9.772068,0.000461,0.002265,0.001276,0.799565,0.664297,2.632382,778.92,15.00,highres
16.617792,11061845205,-0.055574,0.277741,-9.768404,0.001695,-0.000589,-0.000874,0.799565,0.664297,2.632382,778.92,15.00,highres
16.630995,11061855845,-0.050386,0.281685,-9.783113,0.001098,0.000845,-0.000118,0.799565,0.664297,2.632382,778.92,15.00,highres
16.636995,11061859709,-0.057111,0.281247,-9.781847,0.002688,-0.000483,-0.000951,0.799565,0.664297,2.632382,778.92,15.00,highres
16.640805,11061872045,-0.059963,0.280138,-9.775580,0.000461,0.001498,0.000957,0.799565,0.664297,2.632382,778.92,15.00,highres
16.658174,11061882691,-0.051245,0.284770,-9.767903,0.003974,-0.000332,-0.000556,0.799565,0.664297,2.632382,778.92,15.00,highres
16.661901,11061892214,-0.053977,0.272955,-9.774384,0.001153,0.001412,0.000921,0.804824,0.653730,2.637425,778.92,15.00,highres
16.677704,11061904838,-0.059963,0.278545,-9.780567,0.001814,0.001684,0.000840,0.791358,0.652360,2.657308,778.92,15.00,highres
16.679599,11061914843,-0.055110,0.277679,-9.780433,0.002531,0.001276,0.000100,0.791358,0.652360,2.657308,778.93,15.00,highres
16.698136,11061925924,-0.051583,0.276546,-9.775579,0.001612,0.000127,-0.000691,0.791358,0.652360,2.657308,778.93,15.00,highres
16.708742,11061935015,-0.058507,0.276498,-9.776518,0.001135,0.001929,0.000739,0.791358,0.652360,2.657308,778.93,15.00,highres
16.713972,11061942322,-0.065575,0.267482,-9.774578,0.002956,-0.001100,-0.001051,0.791358,0.652360,2.657308,778.93,15.00,highres
16.729743,11061958374,-0.050219,0.278851,-9.785051,0.001733,-0.000742,-0.000374,0.791358,0.652360,2.657308,778.93,15.00,highres
16.738225,11061963000,-0.053655,0.283401,-9.769422,0.003100,-0.000558,-0.000560,0.791358,0.652360,2.657308,778.93,15.00,highres
16.747717,11061968744,-0.051086,0.276248,-9.781093,-0.000069,0.001245,0.001495,0.791358,0.652360,2.657308,778.93,15.00,highres
16.760362,11061982009,-0.051582,0.277737,-9.779108,0.001755,0.000276,-0.000202,0.791358,0.652360,2.657308,778.93,15.00,highres
16.761888,11061993113,-0.040302,0.268301,-9.783939,0.001681,0.000134,-0.000560,0.791358,0.652360,2.657308,778.94,15.00,highres
16.774898,11062004885,-0.065289,0.289771,-9.754563,0.000026,0.001407,0.000484,0.791358,0.652360,2.657308,778.94,15.00,highres
16.788291,11062014845,-0.073129,0.259782,-9.822203,-0.003409,-0.000839,0.000487,0.791358,0.652360,2.657308,778.94,15.00,highres
16.795490,11062025156,-0.055793,0.279783,-9.790043,-0.009948,-0.010692,0.000379,0.791358,0.652360,2.657308,778.94,15.00,highres
16.804667,11062029924,-0.064593,0.264778,-9.757129,-0.011650,-0.009945,0.001470,0.798686,0.654362,2.637436,778.94,15.00,highres
16.813743,11062044813,-0.030035,0.300481,-9.775516,-0.004367,-0.009131,-0.000682,0.798766,0.648104,2.647856,778.94,15.00,highres
16.830098,11062055658,-0.077193,0.284647,-9.725135,0.006083,0.002136,0.000883,0.798766,0.648104,2.647856,778.94,15.00,highres
16.838187,11062065178,-0.059957,0.269121,-9.797584,-0.004392,0.001621,0.000055,0.798766,0.648104,2.647856,778.94,15.00,highres
16.845774,11062077264,-0.062290,0.245207,-9.819460,0.002632,-0.003566,-0.000560,0.798766,0.648104,2.647856,778.93,15.00,highres
16.855349,11062083730,-0.062415,0.271209,-9.760038,-0.000706,-0.002275,-0.000327,0.798766,0.648104,2.647856,778.93,15.00,highres
16.862805,11062096469,-0.057947,0.272132,-9.818557,-0.002083,0.000590,0.001081,0.798766,0.648104,2.647856,778.93,15.00,highres
16.876651,11062105387,-0.059962,0.260979,-9.795867,-0.006529,-0.001087,0.000795,0.798766,0.648104,2.647856,778.93,15.00,highres
16.887353,11062115432,-0.055191,0.266910,-9.779127,-0.010537,0.000745,0.000662,0.798766,0.648104,2.647856,778.93,15.00,highres
16.896014,11062128183,-0.058710,0.299284,-9.775200,-0.012491,0.002089,0.001708,0.798766,0.648104,2.647856,778.93,15.00,highres
16.904477,11062132597,-0.048301,0.296234,-9.756169,-0.012224,0.002061,0.001140,0.798766,0.648104,2.647856,778.93,15.00,highres
16.914115,11062144728,-0.059879,0.276555,-9.779092,-0.003992,0.000604,-0.000265,0.798766,0.648104,2.647856,778.93,15.00,highres
16.927713,11062155659,-0.046929,0.292452,-9.757267,-0.006447,0.002096,-0.000396,0.798766,0.648104,2.647856,778.92,15.00,highres
16.937637,11062165742,-0.056370,0.288511,-9.787487,0.003302,0.001332,0.000724,0.798766,0.648104,2.647856,778.92,15.00,highres
16.941126,11062169906,-0.051277,0.289402,-9.775822,-0.003319,0.004938,0.001244,0.797805,0.652172,2.631498,778.92,15.00,highres
16.955054,11062192670,-0.057509,0.286920,-9.789079,-0.002450,0.004571,0.002014,0.808399,0.655075,2.644814,778.92,15.00,highres
16.965334,11062202142,-0.066262,0.276493,-9.787961,0.001843,-0.000944,0.000376,0.808399,0.655075,2.644814,778.92,15.00,highres
16.974808,11062212483,-0.056593,0.290682,-9.783394,-0.002169,0.000859,0.000534,0.808399,0.655075,2.644814,778.92,15.00,highres
16.980443,11062220239,-0.055716,0.284377,-9.775630,0.000406,0.001160,-0.000116,0.808399,0.655075,2.644814,778.92,15.00,highres
16.995067,11062230143,-0.052124,0.287428,-9.789996,-0.003344,0.002796,0.001687,0.808399,0.655075,2.644814,778.92,15.00,highres
17.003895,11062236779,-0.056852,0.284905,-9.787969,-0.000949,0.001360,0.001641,0.808399,0.655075,2.644814,778.92,15.00,highres
17.013754,11062248384,-0.051582,0.276540,-9.774321,-0.001374,0.002272,0.001883,0.808399,0.655075,2.644814,778.92,15.00,highres
17.029168,11062260178,-0.054314,0.291074,-9.781340,0.001110,-0.001436,-0.000297,0.808399,0.655075,2.644814,778.92,15.00,highres
17.038081,11062272685,-0.055173,0.288511,-9.776713,-0.000763,0.001774,0.000356,0.808399,0.655075,2.644814,778.92,15.00,highres
17.040208,11062278794,-0.056807,0.280131,-9.772965,0.001833,0.000593,-0.000255,0.808399,0.655075,2.644814,778.92,15.00,highres
17.058170,11062290904,-0.051900,0.293486,-9.775517,-0.000779,0.002916,0.001723,0.808399,0.655075,2.644814,778.92,15.00,highres
17.070475,11062303837,-0.050866,0.280725,-9.778985,-0.000061,-0.000385,0.000356,0.808399,0.655075,2.644814,778.92,15.00,highres
17.075339,11062313891,-0.067687,0.287641,-9.771167,-0.000486,0.001192,0.000829,0.808399,0.655075,2.644814,778.92,15.00,highres
17.080771,11062318849,-0.058223,0.285537,-9.771849,0.001523,-0.000329,0.000209,0.801216,0.654997,2.637501,778.92,15.00,highres
17.097594,11062329268,-0.059063,0.287314,-9.773720,-0.000571,0.001699,0.000127,0.796072,0.656017,2.640662,778.92,15.00,highres
17.105235,11062332966,-0.055502,0.285137,-9.783895,-0.001819,0.002718,0.000967,0.796072,0.656017,2.640662,778.92,15.00,highres
17.115567,11062349928,-0.057206,0.287035,-9.774502,-0.000969,0.001766,0.001273,0.796072,0.656017,2.640662,778.92,15.00,highres
17.130321,11062362887,-0.054404,0.273976,-9.778422,-0.000156,-0.001397,-0.000108,0.796072,0.656017,2.640662,778.92,15.00,highres
17.138141,11062371526,-0.057411,0.281467,-9.775968,-0.001715,0.001277,0.001463,0.796072,0.656017,2.640662,778.92,15.00,highres
17.143495,11062383166,-0.056278,0.289063,-9.778185,0.000359,-0.001165,0.000201,0.796072,0.656017,2.640662,778.92,15.00,highres
17.153950,11062390416,-0.060701,0.290705,-9.780515,-0.001885,0.000960,0.002800,0.796072,0.656017,2.640662,778.92,15.00,highres
17.161011,11062402693,-0.052657,0.293779,-9.768100,0.001558,-0.000537,-0.000438,0.796072,0.656017,2.640662,778.91,15.00,highres
17.175544,11062409452,-0.060499,0.284968,-9.778473,-0.000912,0.001948,0.001721,0.796072,0.656017,2.640662,778.91,15.00,highres
17.188156,11062420999,-0.062769,0.281657,-9.780305,0.000639,-0.001768,0.000662,0.796072,0.656017,2.640662,778.91,15.00,highres
17.194959,11062425668,-0.048975,0.277668,-9.780727,-0.000260,0.000207,0.001075,0.796072,0.656017,2.640662,778.91,15.00,highres
17.205853,11062440485,-0.062194,0.285599,-9.771231,0.001070,-0.000477,-0.000473,0.796072,0.656017,2.640662,778.91,15.00,highres
17.214456,11062450169,-0.047702,0.286696,-9.770979,-0.000627,0.003189,0.001578,0.796072,0.656017,2.640662,778.91,15.00,highres
17.225751,11062458243,-0.051957,0.289672,-9.777537,0.000755,0.001661,0.000461,0.806291,0.654154,2.639756,778.91,15.00,highres
17.238740,11062469982,-0.056772,0.284904,-9.774326,-0.000763,0.001645,0.001454,0.804344,0.638972,2.636949,778.91,15.00,highres
17.240774,11062480065,-0.044860,0.279303,-9.777266,0.000835,-0.001698,0.000027,0.804344,0.638972,2.636949,778.92,15.00,highres
17.253701,11062491379,-0.057568,0.292102,-9.776714,-0.002290,0.002883,0.002189,0.804344,0.638972,2.636949,778.92,15.00,highres
17.268262,11062502976,-0.063266,0.288679,-9.778029,0.001191,0.000869,0.000051,0.804344,0.638972,2.636949,778.92,15.00,highres
17.274632,11062508565,-0.066731,0.294125,-9.784659,-0.000152,0.002883,0.001273,0.804344,0.638972,2.636949,778.92,15.00,highres
17.281576,11062521666,-0.045768,0.276026,-9.765427,0.001723,-0.000825,0.000530,0.804344,0.638972,2.636949,778.92,15.00,highres
17.295291,11062533281,-0.062090,0.285673,-9.779818,-0.001758,0.002159,0.001691,0.804344,0.638972,2.636949,778.92,15.00,highres
17.300240,11062543290,-0.057568,0.296849,-9.772421,0.001074,-0.000477,0.001269,0.804344,0.638972,2.636949,778.92,15.00,highres
17.300240,11062550515,-0.063553,0.290437,-9.779391,-0.001757,0.001476,0.002572,0.804344,0.638972,2.636949,778.92,15.00,highres
17.300240,11062561000,-0.055940,0.292514,-9.771552,0.002392,-0.000982,-0.001271,0.804344,0.638972,2.636949,778.91,15.00,highres
17.300240,11062569638,-0.054386,0.282935,-9.773122,0.000587,0.000836,0.000839,0.804344,0.638972,2.636949,778.91,15.00,highres
17.348906,11062581030,-0.059962,0.283723,-9.787487,0.001070,-0.000171,-0.000560,0.804344,0.638972,2.636949,778.91,15.00,highres
17.355943,11062593362,-0.048416,0.275921,-9.782351,-0.000717,0.002096,0.001837,0.804344,0.638972,2.636949,778.91,15.00,highres
17.365274,11062598463,-0.045597,0.292102,-9.778383,0.000580,-0.000348,-0.000375,0.799022,0.651657,2.639359,778.91,15.00,highres
17.374829,11062605744,-0.054079,0.286066,-9.778534,-0.000365,-0.002103,-0.000148,0.796955,0.646702,2.622609,778.91,15.00,highres
17.388310,11062621259,-0.054456,0.278637,-9.781625,0.001390,-0.001515,-0.000667,0.796955,0.646702,2.622609,778.91,15.00,highres
17.395717,11062632422,-0.055309,0.298396,-9.769359,-0.002098,0.002657,0.002076,0.796955,0.646702,2.622609,778.91,15.00,highres
17.403928,11062643820,-0.049188,0.280131,-9.774320,0.001494,-0.002428,-0.000373,0.796955,0.646702,2.622609,778.91,15.00,highres
17.416571,11062649613,-0.057010,0.285176,-9.777186,-0.000879,0.000672,0.001835,0.796955,0.646702,2.622609,778.91,15.00,highres
17.428392,11062660681,-0.060798,0.289380,-9.782519,0.001642,0.000829,-0.000346,0.796955,0.646702,2.622609,778.91,15.00,highres
17.438849,11062672477,-0.056423,0.284564,-9.779134,-0.002394,0.003286,0.001377,0.796955,0.646702,2.622609,778.91,15.00,highres
17.440486,11062678290,-0.062693,0.281596,-9.776981,0.000690,0.000893,-0.000657,0.796955,0.646702,2.622609,778.91,15.00,highres
17.453672,11062683732,-0.061704,0.279261,-9.774647,0.001070,-0.001811,-0.000705,0.796955,0.646702,2.622609,778.91,15.00,highres
17.461555,11062693518,-0.056803,0.281960,-9.780804,-0.001211,0.001873,0.001509,0.796955,0.646702,2.622609,778.91,15.00,highres
17.476291,11062704204,-0.061159,0.277737,-9.773124,0.000459,-0.000782,0.000051,0.796955,0.646702,2.622609,778.91,15.00,highres
17.479715,11062715830,-0.057810,0.280616,-9.771442,-0.000700,0.000545,-0.000012,0.796955,0.646702,2.622609,778.92,15.00,highres
17.497675,11062726359,-0.056370,0.287314,-9.773123,0.000385,-0.000107,0.000736,0.802434,0.653108,2.636098,778.92,15.00,highres
17.504484,11062736330,-0.059962,0.288511,-9.781503,-0.000307,0.001662,-0.000254,0.802434,0.653108,2.636098,778.92,15.00,highres
17.514402,11062747753,-0.060767,0.275952,-9.778696,0.000304,-0.000013,-0.000101,0.792815,0.653479,2.637158,778.92,15.00,highres
17.528729,11062756317,-0.060782,0.287861,-9.766865,-0.001374,0.000745,0.000051,0.792815,0.653479,2.637158,778.92,15.00,highres
17.537527,11062761040,-0.061136,0.289662,-9.774781,0.001515,-0.000830,-0.000913,0.792815,0.653479,2.637158,778.92,15.00,highres
17.539186,11062773849,-0.060000,0.282449,-9.789842,-0.001574,0.003084,0.002184,0.792815,0.653479,2.637158,778.92,15.00,highres
17.555957,11062780950,-0.061127,0.273563,-9.777911,0.000774,0.000528,-0.000264,0.792815,0.653479,2.637158,778.92,15.00,highres
17.560993,11062790429,-0.061675,0.287830,-9.782185,-0.001985,0.002667,0.002889,0.792815,0.653479,2.637158,778.92,15.00,highres
17.574104,11062800414,-0.057550,0.269833,-9.779844,0.001260,-0.000741,-0.000024,0.792815,0.653479,2.637158,778.92,15.00,highres
17.579077,11062812820,-0.058273,0.291611,-9.780365,-0.001178,0.002359,0.001774,0.792815,0.653479,2.637158,778.92,15.00,highres
17.594919,11062823407,-0.062123,0.285385,-9.767153,0.001681,-0.002764,-0.000099,0.792815,0.653479,2.637158,778.92,15.00,highres
17.603311,11062828739,-0.061047,0.294608,-9.761903,-0.000620,0.001227,0.000818,0.792815,0.653479,2.637158,778.92,15.00,highres
17.615180,11062838103,-0.062772,0.288833,-9.780856,-0.000014,-0.000195,0.000385,0.792815,0.653479,2.637158,778.92,15.00,highres
17.628269,11062843677,-0.067144,0.292102,-9.773123,0.001279,-0.002533,-0.000672,0.792815,0.653479,2.637158,778.92,15.00,highres
17.637123,11062849423,-0.059362,0.289411,-9.778805,-0.001233,0.001016,0.001156,0.798291,0.653986,2.643114,778.92,15.00,highres
17.641092,11062869464,-0.056559,0.281127,-9.785497,-0.000837,0.000819,0.000279,0.798291,0.653986,2.643114,778.92,15.00,highres
17.653336,11062878638,-0.062532,0.275502,-9.767330,-0.000203,-0.000068,-0.001603,0.797888,0.647358,2.639213,778.92,15.00,highres
17.668628,11062887136,-0.070735,0.281328,-9.764744,-0.001319,0.001445,0.000913,0.797888,0.647358,2.639213,778.92,15.00,highres
17.676340,11062899278,-0.046221,0.258272,-9.801592,-0.000763,0.001967,0.000662,0.797888,0.647358,2.639213,778.92,15.00,highres
17.684766,11062903584,-0.042200,0.269940,-9.795803,0.005299,-0.001346,0.000399,0.797888,0.647358,2.639213,778.92,15.00,highres
17.696590,11062931649,-0.044964,0.296257,-9.810194,0.013319,-0.013154,0.004402,0.797888,0.647358,2.639213,778.92,15.00,highres
17.703763,11062936327,-0.051139,0.313278,-9.847969,0.004459,-0.014122,0.001735,0.797888,0.647358,2.639213,778.92,15.00,highres
17.714088,11062951541,-0.083001,0.273817,-9.686425,0.000106,0.010000,0.002063,0.797888,0.647358,2.639213,778.92,15.00,highres
17.729389,11062961272,-0.053039,0.281429,-9.854732,0.010916,-0.006669,0.001073,0.797888,0.647358,2.639213,778.91,15.00,highres
17.737086,11062967245,-0.043382,0.287977,-9.846899,0.003798,-0.009479,0.000493,0.797888,0.647358,2.639213,778.91,15.00,highres
17.739068,11062978781,-0.076321,0.274523,-9.702929,0.000449,-0.001516,0.000925,0.797888,0.647358,2.639213,778.91,15.00,highres
17.753687,11062989090,-0.067138,0.268134,-9.797898,0.004124,0.001967,0.001570,0.797888,0.647358,2.639213,778.91,15.00,highres
17.761021,11062998532,-0.061153,0.287088,-9.820974,0.002493,-0.007918,0.001161,0.797888,0.647358,2.639213,778.91,15.00,highres
17.774976,11063011412,-0.061582,0.272968,-9.760407,-0.000043,-0.004310,0.002071,0.799619,0.654581,2.644229,778.91,15.00,highres
17.789159,11063024556,-0.064522,0.272670,-9.786963,0.005466,-0.002124,0.000533,0.800589,0.654745,2.635027,778.91,15.00,highres
17.795602,11063028998,-0.063745,0.275996,-9.803125,0.001812,-0.001749,0.002436,0.800589,0.654745,2.635027,778.91,15.00,highres
17.804030,11063041309,-0.065941,0.277710,-9.779942,0.001070,-0.005956,0.000043,0.800589,0.654745,2.635027,778.93,15.00,highres
17.814480,11063047017,-0.070193,0.284544,-9.772392,0.000701,-0.004009,0.000348,0.800589,0.654745,2.635027,778.93,15.00,highres
17.824056,11063059138,-0.055167,0.277710,-9.767973,0.001986,-0.001393,-0.000568,0.800589,0.654745,2.635027,778.93,15.00,highres
17.837098,11063075082,-0.063931,0.288626,-9.785927,-0.000628,0.002749,0.001472,0.800589,0.654745,2.635027,778.93,15.00,highres
17.840470,11063078660,-0.066534,0.288462,-9.781117,0.000921,0.000283,0.000192,0.800589,0.654745,2.635027,778.93,15.00,highres
17.853768,11063092390,-0.053147,0.278607,-9.772461,-0.000706,0.002215,0.000559,0.800589,0.654745,2.635027,778.93,15.00,highres
17.868712,11063102416,-0.054936,0.275792,-9.777085,0.001074,0.001900,0.000591,0.800589,0.654745,2.635027,778.93,15.00,highres
17.874847,11063112474,-0.068881,0.288166,-9.777547,-0.002162,0.004559,0.001620,0.800589,0.654745,2.635027,778.93,15.00,highres
17.879985,11063119991,-0.061318,0.278742,-9.769335,-0.000596,0.002697,-0.000143,0.800589,0.654745,2.635027,778.93,15.00,highres
17.896121,11063126431,-0.061610,0.276688,-9.769803,0.000021,0.001224,-0.000304,0.800589,0.654745,2.635027,778.93,15.00,highres
17.903325,11063131736,-0.063308,0.273999,-9.777608,-0.001693,0.002591,0.001028,0.800589,0.654745,2.635027,778.93,15.00,highres
17.914400,11063144081,-0.063547,0.280104,-9.779942,0.000136,0.000583,-0.000406,0.797577,0.653419,2.639192,778.93,15.00,highres
17.929173,11063158804,-0.055735,0.281474,-9.769799,-0.000502,0.001678,0.000959,0.801300,0.665826,2.646484,778.93,15.00,highres
17.937779,11063163947,-0.055573,0.270528,-9.771876,0.000459,0.000440,0.000959,0.801300,0.665826,2.646484,778.93,15.00,highres
17.940695,11063174707,-0.063090,0.285004,-9.774982,-0.000962,0.003696,0.001366,0.801300,0.665826,2.646484,778.93,15.00,highres
17.955316,11063186385,-0.065941,0.277710,-9.772760,0.000367,-0.000782,-0.000476,0.801300,0.665826,2.646484,778.93,15.00,highres
17.964934,11063191335,-0.065257,0.267848,-9.773615,-0.000956,0.002465,0.001056,0.801300,0.665826,2.646484,778.93,15.00,highres
17.974055,11063203632,-0.061307,0.277034,-9.777085,0.001193,-0.000138,0.000530,0.801300,0.665826,2.646484,778.92,15.00,highres
17.979031,11063214192,-0.065661,0.274678,-9.773219,-0.000841,0.002095,0.000987,0.801300,0.665826,2.646484,778.92,15.00,highres
17.995133,11063223613,-0.063124,0.277640,-9.772338,0.000777,-0.000782,-0.000873,0.801300,0.665826,2.646484,778.92,15.00,highres
18.007559,11063234813,-0.063137,0.271694,-9.777926,-0.001456,0.001605,0.001375,0.801300,0.665826,2.646484,778.92,15.00,highres
18.014003,11063243913,-0.066566,0.277296,-9.768078,0.000153,0.000440,0.001265,0.801300,0.665826,2.646484,778.92,15.00,highres
18.031138,11063253723,-0.069816,0.282671,-9.770477,-0.002502,0.002829,0.001743,0.801300,0.665826,2.646484,778.92,15.00,highres
18.038135,11063260200,-0.058384,0.281978,-9.769992,0.000096,-0.000544,-0.000148,0.801300,0.665826,2.646484,778.92,15.00,highres
18.047908,11063270365,-0.048890,0.270047,-9.778132,-0.000458,0.001050,0.000959,0.801300,0.665826,2.646484,778.92,15.00,highres
18.054114,11063278727,-0.058114,0.272002,-9.771196,-0.001449,-0.000137,0.000308,0.797831,0.656301,2.635576,778.93,15.00,highres
18.068610,11063299360,-0.054916,0.286311,-9.775154,-0.000254,0.001052,0.000301,0.807861,0.672577,2.647169,778.93,15.00,highres
18.075098,11063312477,-0.056896,0.276513,-9.773206,-0.002171,0.001935,0.001876,0.807861,0.672577,2.647169,778.93,15.00,highres
18.079135,11063323998,-0.050741,0.282192,-9.786764,0.000565,0.000653,0.000334,0.807861,0.672577,2.647169,778.93,15.00,highres
18.095424,11063332710,-0.062639,0.274283,-9.775483,-0.001407,0.002338,0.001644,0.807861,0.672577,2.647169,778.93,15.00,highres
18.105312,11063336862,-0.058196,0.266302,-9.767972,-0.000401,0.002216,0.000635,0.807861,0.672577,2.647169,778.93,15.00,highres
18.116165,11063352130,-0.068786,0.274538,-9.776648,-0.001489,0.003304,0.002296,0.807861,0.672577,2.647169,778.93,15.00,highres
18.128331,11063359443,-0.066315,0.273818,-9.768199,-0.000649,0.000270,0.000502,0.807861,0.672577,2.647169,778.93,15.00,highres
18.137043,11063371383,-0.066288,0.270603,-9.777813,-0.001961,0.002444,0.002048,0.807861,0.672577,2.647169,778.93,15.00,highres
18.148479,11063381627,-0.067138,0.269331,-9.773956,0.001375,-0.000782,-0.000568,0.807861,0.672577,2.647169,778.93,15.00,highres
18.153939,11063391230,-0.058109,0.289680,-9.772830,-0.001820,0.002404,0.000794,0.807861,0.672577,2.647169,778.93,15.00,highres
18.161501,11063396469,-0.062936,0.279565,-9.776303,-0.000626,0.002136,0.000966,0.807861,0.672577,2.647169,778.93,15.00,highres
18.175938,11063406467,-0.065941,0.275316,-9.783532,-0.000458,0.000440,0.000043,0.807861,0.672577,2.647169,778.93,15.00,highres
18.179164,11063421622,-0.056680,0.274758,-9.779416,0.000821,0.000191,0.000835,0.807861,0.672577,2.647169,778.93,15.00,highres
18.196116,11063431819,-0.057265,0.278846,-9.777365,-0.001696,0.003008,0.001463,0.798591,0.650547,2.637676,778.93,15.00,highres
18.204719,11063441840,-0.066191,0.273938,-9.766955,0.000259,0.000359,0.000043,0.797282,0.651415,2.630704,778.93,15.00,highres
18.216701,11063451635,-0.060786,0.277063,-9.776675,-0.001374,0.003041,0.002335,0.797282,0.651415,2.630704,778.93,15.00,highres
18.229855,11063461335,-0.068215,0.281301,-9.771025,0.000338,0.000566,-0.000873,0.797282,0.651415,2.630704,778.93,15.00,highres
18.237295,11063470249,-0.063899,0.289470,-9.770719,0.000156,0.001045,0.000854,0.797282,0.651415,2.630704,778.93,15.00,highres
18.239045,11063479030,-0.042826,0.273748,-9.788692,-0.000496,0.002444,-0.000779,0.797282,0.651415,2.630704,778.93,15.00,highres
18.254917,11063489388,-0.067138,0.280104,-9.777548,-0.000763,0.003189,0.000959,0.797282,0.651415,2.630704,778.93,15.00,highres
18.263167,11063502151,-0.071926,0.281301,-9.778746,0.001070,-0.000347,-0.000873,0.797282,0.651415,2.630704,778.93,15.00,highres
18.274712,11063508572,-0.057896,0.274070,-9.781953,0.000447,0.000244,0.000165,0.797282,0.651415,2.630704,778.93,15.00,highres
18.281937,11063513707,-0.064144,0.269928,-9.771565,-0.001527,0.002807,0.001876,0.797282,0.651415,2.630704,778.93,15.00,highres
18.298566,11063529257,-0.059956,0.276513,-9.770082,-0.000169,0.001571,0.000654,0.797282,0.651415,2.630704,778.93,15.00,highres
18.298566,11063542394,-0.054966,0.279606,-9.770070,0.000510,0.000107,0.000781,0.797282,0.651415,2.630704,778.93,15.00,highres
18.298566,11063549830,-0.055745,0.273788,-9.783245,-0.000015,0.000376,-0.000105,0.797282,0.651415,2.630704,778.93,15.00,highres
18.298566,11063554546,-0.055226,0.280806,-9.782949,-0.002737,0.003666,0.002338,0.796892,0.655187,2.636099,778.93,15.00,highres
18.338877,11063567119,-0.056532,0.288136,-9.790009,-0.000114,-0.000133,0.001303,0.796892,0.655187,2.636099,778.93,15.00,highres
18.339923,11063578174,-0.050897,0.274636,-9.773278,-0.000835,0.002039,0.000612,0.799703,0.653134,2.631934,778.93,15.00,highres
18.356145,11063587459,-0.055046,0.288399,-9.778251,-0.000458,-0.000324,0.000959,0.799703,0.653134,2.631934,778.93,15.00,highres
18.361036,11063594726,-0.046788,0.282592,-9.774163,-0.001985,0.003321,0.001092,0.799703,0.653134,2.631934,778.93,15.00,highres
18.378673,11063604029,-0.061561,0.282371,-9.774084,0.001375,-0.001311,-0.000403,0.799703,0.653134,2.631934,778.93,15.00,highres
18.388454,11063609251,-0.067081,0.275344,-9.780442,-0.001469,0.001333,0.000937,0.799703,0.653134,2.631934,778.93,15.00,highres
18.395582,11063622300,-0.063649,0.270985,-9.773193,0.000010,-0.000445,-0.000842,0.799703,0.653134,2.631934,778.93,15.00,highres
18.403861,11063631787,-0.057601,0.291669,-9.775579,-0.002758,0.003514,0.002374,0.799703,0.653134,2.631934,778.93,15.00,highres
18.417278,11063637258,-0.053346,0.284632,-9.768285,-0.001374,0.003494,0.000959,0.799703,0.653134,2.631934,778.93,15.00,highres
18.429336,11063649434,-0.060689,0.275240,-9.760863,-0.000738,0.001386,0.000238,0.799703,0.653134,2.631934,778.93,15.00,highres
18.437456,11063654530,-0.059560,0.281697,-9.776497,-0.001985,0.002578,-0.000262,0.799703,0.653134,2.631934,778.93,15.00,highres
18.439367,11063664027,-0.056576,0.277201,-9.777548,0.001680,0.002578,0.000348,0.799703,0.653134,2.631934,778.92,15.00,highres
18.455487,11063690172,-0.049686,0.282675,-9.770530,-0.000963,0.002235,0.000785,0.799703,0.653134,2.631934,778.92,15.00,highres
18.462634,11063699727,-0.061153,0.288826,-9.777548,-0.000288,0.002131,0.000819,0.801269,0.652171,2.642250,778.92,15.00,highres
18.476218,11063712056,-0.064744,0.286236,-9.775154,-0.003168,0.004868,0.002486,0.801269,0.652171,2.642250,778.92,15.00,highres
18.479381,11063722180,-0.056966,0.286083,-9.781136,-0.000621,0.002086,-0.001462,0.799430,0.660139,2.645803,778.92,15.00,highres
18.495691,11063729031,-0.053965,0.272117,-9.775160,0.000387,0.003476,0.000420,0.799430,0.660139,2.645803,778.92,15.00,highres
18.509046,11063739024,-0.061153,0.265739,-9.781138,-0.000780,0.001571,0.000142,0.799430,0.660139,2.645803,778.92,15.00,highres
18.515213,11063744436,-0.055193,0.280054,-9.775229,0.001973,-0.002744,0.000647,0.799430,0.660139,2.645803,778.92,15.00,highres
18.525362,11063759661,-0.063356,0.278475,-9.772952,0.003849,-0.004783,0.001410,0.799430,0.660139,2.645803,778.93,15.00,highres
18.537108,11063770022,-0.052773,0.299257,-9.793110,0.002902,-0.004447,0.001570,0.799430,0.660139,2.645803,778.93,15.00,highres
18.542820,11063782380,-0.060756,0.273852,-9.752898,0.000889,0.000315,-0.000568,0.799430,0.660139,2.645803,778.93,15.00,highres
18.554606,11063791809,-0.065679,0.273692,-9.789093,0.000153,0.002326,0.001624,0.799430,0.660139,2.645803,778.93,15.00,highres
18.562253,11063799976,-0.054334,0.273729,-9.772290,0.000260,0.000426,0.001158,0.799430,0.660139,2.645803,778.93,15.00,highres
18.575559,11063810236,-0.064744,0.280104,-9.770367,-0.001068,-0.002004,-0.000262,0.799430,0.660139,2.645803,778.93,15.00,highres
18.580527,11063819199,-0.061153,0.271296,-9.775334,0.001790,-0.001808,0.000654,0.799430,0.660139,2.645803,778.93,15.00,highres
18.597306,11063824466,-0.066383,0.280767,-9.786682,0.001319,-0.004672,0.000348,0.799430,0.660139,2.645803,778.93,15.00,highres
18.603589,11063837065,-0.067138,0.270888,-9.771665,0.000058,-0.001581,0.001313,0.800826,0.651658,2.638455,778.93,15.00,highres
18.615495,11063847876,-0.070729,0.289964,-9.768996,0.002404,-0.003203,-0.000375,0.803730,0.656601,2.628160,778.93,15.00,highres
18.628453,11063859889,-0.063715,0.285576,-9.773101,0.001026,-0.001045,0.001046,0.803730,0.656601,2.628160,778.93,15.00,highres
18.637746,11063869561,-0.068015,0.274996,-9.777633,0.000677,0.000133,0.001614,0.803730,0.656601,2.628160,778.93,15.00,highres
18.639771,11063874808,-0.055675,0.277202,-9.779122,-0.000458,0.001967,0.001265,0.803730,0.656601,2.628160,778.93,15.00,highres
18.655456,11063884586,-0.063190,0.281658,-9.764845,0.001193,-0.001393,0.000596,0.803730,0.656601,2.628160,778.93,15.00,highres
18.668569,11063894339,-0.075517,0.270528,-9.770368,-0.002290,0.003204,0.002002,0.803730,0.656601,2.628160,778.93,15.00,highres
18.676393,11063900172,-0.064329,0.268671,-9.775814,0.000153,0.000745,-0.000568,0.803730,0.656601,2.628160,778.93,15.00,highres
18.679536,11063914255,-0.062350,0.270528,-9.776351,-0.000545,0.001923,0.001221,0.803730,0.656601,2.628160,778.92,15.00,highres
18.695935,11063925025,-0.055814,0.283635,-9.772270,0.001986,-0.000939,0.000348,0.803730,0.656601,2.628160,778.92,15.00,highres
18.704473,11063934722,-0.058466,0.277097,-9.782024,-0.002596,0.002272,0.000348,0.803730,0.656601,2.628160,778.92,15.00,highres
18.713558,11063944520,-0.071207,0.274349,-9.767979,0.000638,-0.000729,-0.000515,0.803730,0.656601,2.628160,778.92,15.00,highres
18.725910,11063953326,-0.073317,0.269268,-9.775438,-0.001436,0.001550,0.001243,0.803730,0.656601,2.628160,778.92,15.00,highres
18.736823,11063963258,-0.059481,0.276025,-9.772567,0.000764,-0.000164,-0.000897,0.803730,0.656601,2.628160,778.92,15.00,highres
18.739550,11063969603,-0.057324,0.270762,-9.784696,0.001509,0.000132,0.000316,0.802330,0.650950,2.642424,778.92,15.00,highres
18.753899,11063981792,-0.063537,0.281278,-9.772497,0.000372,-0.000471,-0.000505,0.813590,0.663191,2.658552,778.92,15.00,highres
18.761588,11063987604,-0.057207,0.274867,-9.781137,0.001542,-0.000192,0.001518,0.813590,0.663191,2.658552,778.92,15.00,highres
18.774259,11064009645,-0.066654,0.273260,-9.770352,0.000608,-0.000952,0.000204,0.813590,0.663191,2.658552,778.92,15.00,highres
18.783811,11064019581,-0.071916,0.281278,-9.785665,0.001375,0.000447,0.000631,0.813590,0.663191,2.658552,778.92,15.00,highres
18.794415,11064030222,-0.063087,0.285967,-9.769230,0.000434,0.001191,0.001044,0.813590,0.663191,2.658552,778.92,15.00,highres
18.805352,11064035505,-0.068772,0.266198,-9.767299,-0.001784,0.002699,0.001766,0.813590,0.663191,2.658552,778.92,15.00,highres
18.814259,11064049823,-0.060239,0.286066,-9.773267,-0.000880,0.000175,0.000137,0.813590,0.663191,2.658552,778.92,15.00,highres
18.824077,11064059749,-0.063096,0.282328,-9.763522,-0.000229,0.001326,-0.000782,0.813590,0.663191,2.658552,778.92,15.00,highres
18.836738,11064069528,-0.075696,0.275145,-9.767373,0.001590,0.000007,0.000936,0.813590,0.663191,2.658552,778.92,15.00,highres
18.840377,11064079554,-0.064175,0.267473,-9.775127,0.000153,0.000592,0.000020,0.813590,0.663191,2.658552,778.92,15.00,highres
18.853899,11064094458,-0.063934,0.277420,-9.767533,-0.000925,0.001688,0.001771,0.813590,0.663191,2.658552,778.92,15.00,highres
18.863818,11064100081,-0.072427,0.284275,-9.764804,0.000153,-0.000383,0.000215,0.813590,0.663191,2.658552,778.92,15.00,highres
18.876345,11064109999,-0.062219,0.285067,-9.768468,-0.000071,-0.001161,-0.000383,0.813590,0.663191,2.658552,778.92,15.00,highres
18.878590,11064120159,-0.067236,0.277741,-9.775463,0.001347,-0.000309,0.001679,0.801196,0.656712,2.637815,778.92,15.00,highres
18.894910,11064129538,-0.064734,0.282475,-9.768907,-0.000458,-0.000164,-0.000286,0.803927,0.632658,2.628810,778.92,15.00,highres
18.908275,11064139739,-0.063020,0.271895,-9.773370,0.000368,-0.000196,-0.000500,0.803927,0.632658,2.628810,778.92,15.00,highres
18.913638,11064151041,-0.060148,0.279980,-9.774991,0.000423,0.001503,0.001355,0.803927,0.632658,2.628810,778.92,15.00,highres
18.929089,11064162255,-0.060672,0.279122,-9.769148,0.001131,0.000203,-0.000591,0.803927,0.632658,2.628810,778.92,15.00,highres
18.938694,11064171948,-0.054542,0.279479,-9.765342,-0.001739,0.002768,0.001079,0.803927,0.632658,2.628810,778.92,15.00,highres
18.945487,11064179343,-0.063394,0.284774,-9.771061,-0.001378,0.000250,0.000122,0.803927,0.632658,2.628810,778.92,15.00,highres
18.953423,11064190195,-0.064734,0.269308,-9.779679,-0.001335,0.001497,0.001069,0.803927,0.632658,2.628810,778.92,15.00,highres
18.962400,11064199555,-0.062837,0.296343,-9.776291,0.000503,0.000869,-0.000766,0.803927,0.632658,2.628810,778.92,15.00,highres
18.975161,11064207920,-0.061405,0.276951,-9.776048,0.001309,-0.000687,-0.000613,0.803927,0.632658,2.628810,778.92,15.00,highres
18.988432,11064219927,-0.052764,0.270369,-9.770802,-0.000149,0.001494,0.000978,0.803927,0.632658,2.628810,778.92,15.00,highres
18.996062,11064225526,-0.054602,0.280809,-9.775790,0.000459,0.001058,-0.000286,0.803927,0.632658,2.628810,778.92,15.00,highres
19.006473,11064237251,-0.056903,0.279938,-9.783170,-0.002376,0.002934,0.000368,0.803927,0.632658,2.628810,778.92,15.00,highres
19.015178,11064248315,-0.062752,0.274096,-9.781268,0.000455,-0.000335,0.000589,0.803927,0.632658,2.628810,778.92,15.00,highres
19.025400,11064253247,-0.052013,0.276105,-9.783635,-0.001163,0.001384,0.002789,0.800690,0.651887,2.638335,778.92,15.00,highres
19.037130,11064262418,-0.055920,0.280134,-9.783429,0.001576,-0.000766,-0.000591,0.790615,0.641334,2.641074,778.92,15.00,highres
19.039163,11064275028,-0.072223,0.274235,-9.786557,-0.001832,0.001979,0.000785,0.790615,0.641334,2.641074,778.92,15.00,highres
19.055014,11064285409,-0.051901,0.282063,-9.768494,0.000459,-0.000774,0.000630,0.790615,0.641334,2.641074,778.92,15.00,highres
19.062190,11064295113,-0.061143,0.281278,-9.772496,-0.000299,0.002582,0.001996,0.790615,0.641334,2.641074,778.92,15.00,highres
19.080074,11064302425,-0.062340,0.281278,-9.770103,0.001986,0.001364,-0.000286,0.790615,0.641334,2.641074,778.92,15.00,highres
19.108276,11064315537,-0.058749,0.276490,-9.770103,0.000459,-0.000164,-0.000286,0.790615,0.641334,2.641074,778.92,15.00,highres
19.120779,11064347841,-0.062599,0.272528,-9.762403,0.000355,-0.000464,0.000330,0.790615,0.641334,2.641074,778.92,15.00,highres
19.129793,11064359414,-0.058320,0.275293,-9.781644,0.000561,0.000141,-0.000795,0.790615,0.641334,2.641074,778.92,15.00,highres
19.137016,11064369475,-0.059209,0.279989,-9.769458,-0.000149,0.001055,0.001547,0.790615,0.641334,2.641074,778.92,15.00,highres
19.151891,11064374918,-0.064527,0.273221,-9.775880,-0.001374,0.003323,0.000767,0.795840,0.652462,2.636422,778.92,15.00,highres
19.161411,11064385054,-0.060551,0.277677,-9.782078,0.001836,-0.000157,0.000175,0.795840,0.652462,2.636422,778.92,15.00,highres
19.171866,11064395009,-0.060729,0.280945,-9.774890,-0.001652,0.003502,0.001686,0.795840,0.652462,2.636422,778.93,15.00,highres
19.175373,11064405151,-0.055158,0.283672,-9.767710,0.002470,-0.000954,0.000199,0.803555,0.651635,2.642354,778.93,15.00,highres
19.189744,11064409837,-0.058244,0.287893,-9.774199,0.000764,0.001364,0.000936,0.803555,0.651635,2.642354,778.93,15.00,highres
19.195913,11064435492,-0.050370,0.275293,-9.782074,-0.001736,0.002364,0.001631,0.803555,0.651635,2.642354,778.93,15.00,highres
19.211233,11064443074,-0.054436,0.275491,-9.773767,0.000689,-0.001234,-0.000594,0.803555,0.651635,2.642354,778.93,15.00,highres
19.215367,11064452683,-0.065980,0.285107,-9.769577,-0.001215,0.002060,0.001400,0.803555,0.651635,2.642354,778.93,15.00,highres
19.230500,11064463288,-0.057216,0.274096,-9.775321,0.000935,-0.001691,0.000545,0.803555,0.651635,2.642354,778.93,15.00,highres
19.238701,11064475572,-0.066432,0.283846,-9.776088,-0.001549,0.001408,0.001722,0.803555,0.651635,2.642354,778.93,15.00,highres
19.251877,11064485407,-0.056034,0.270623,-9.776031,0.001919,-0.001438,0.000630,0.803555,0.651635,2.642354,778.93,15.00,highres
19.261156,11064491054,-0.056418,0.280921,-9.771719,0.000153,0.000753,0.000325,0.803555,0.651635,2.642354,778.93,15.00,highres
19.270840,11064502625,-0.067606,0.289658,-9.775369,0.000082,-0.000273,-0.000880,0.803555,0.651635,2.642354,778.93,15.00,highres
19.275024,11064509164,-0.057386,0.278921,-9.783972,-0.000941,-0.000410,0.000567,0.803555,0.651635,2.642354,778.93,15.00,highres
19.295430,11064520701,-0.069492,0.286066,-9.772467,0.000459,-0.001385,0.000936,0.797118,0.655260,2.636098,778.93,15.00,highres
19.296837,11064525964,-0.060464,0.280769,-9.772326,0.001070,-0.002140,0.000020,0.797118,0.655260,2.636098,778.93,15.00,highres
19.305325,11064542625,-0.065121,0.269223,-9.769462,0.000446,-0.001971,-0.000579,0.797118,0.655260,2.636098,778.93,15.00,highres
19.305325,11064548916,-0.062908,0.277909,-9.776310,0.000764,-0.000774,-0.000286,0.795183,0.655289,2.630427,778.93,15.00,highres
19.305325,11064560367,-0.062536,0.285612,-9.767967,0.000193,0.000749,-0.000212,0.795183,0.655289,2.630427,778.93,15.00,highres
19.305325,11064575580,-0.051734,0.272648,-9.767068,-0.001567,0.001252,0.000699,0.795183,0.655289,2.630427,778.93,15.00,highres
19.351107,11064583641,-0.059899,0.274558,-9.774500,0.000770,-0.000980,-0.000597,0.795183,0.655289,2.630427,778.93,15.00,highres
19.361304,11064592873,-0.064368,0.272068,-9.773230,-0.002103,0.002679,0.001547,0.795183,0.655289,2.630427,778.93,15.00,highres
19.370851,11064605140,-0.063537,0.282475,-9.774891,0.000893,-0.001691,-0.001508,0.795183,0.655289,2.630427,778.93,15.00,highres
19.380630,11064610275,-0.060130,0.279437,-9.770196,-0.000651,0.001236,0.000920,0.795183,0.655289,2.630427,778.93,15.00,highres
19.390513,11064629127,-0.058092,0.281442,-9.771841,0.000592,-0.000125,-0.000375,0.795183,0.655289,2.630427,778.93,15.00,highres
19.396242,11064635694,-0.065696,0.286943,-9.776964,-0.001262,0.002779,0.001964,0.795183,0.655289,2.630427,778.93,15.00,highres
19.404985,11064649499,-0.058749,0.273034,-9.769439,0.000526,-0.000298,0.000427,0.795183,0.655289,2.630427,778.94,15.00,highres
19.415964,11064656209,-0.053324,0.285506,-9.778404,-0.001537,0.003544,0.002015,0.795183,0.655289,2.630427,778.94,15.00,highres
19.430834,11064663053,-0.061143,0.272899,-9.782072,0.001094,-0.000070,-0.000124,0.800756,0.654396,2.642824,778.94,15.00,highres
19.436801,11064673529,-0.070792,0.271213,-9.779263,-0.001936,0.002256,0.002793,0.800756,0.654396,2.642824,778.94,15.00,highres
19.454190,11064680206,-0.066384,0.276358,-9.787635,-0.000665,0.001032,0.000065,0.800046,0.657820,2.642416,778.94,15.00,highres
19.461693,11064686980,-0.053669,0.273753,-9.767782,0.001375,-0.000164,0.000020,0.800046,0.657820,2.642416,778.94,15.00,highres
19.470538,11064698247,-0.057552,0.277687,-9.771299,-0.000465,0.001224,0.000638,0.800046,0.657820,2.642416,778.94,15.00,highres
19.474172,11064710595,-0.063446,0.281923,-9.781612,0.000602,0.000093,0.000864,0.800046,0.657820,2.642416,778.94,15.00,highres
19.484809,11064716013,-0.063087,0.277983,-9.770399,-0.002313,0.001855,0.000958,0.800046,0.657820,2.642416,778.93,15.00,highres
19.496511,11064729202,-0.062424,0.283672,-9.777369,0.000823,-0.000432,0.000325,0.800046,0.657820,2.642416,778.93,15.00,highres
19.511350,11064735759,-0.054701,0.284129,-9.781160,-0.000498,0.001404,0.001720,0.800046,0.657820,2.642416,778.93,15.00,highres
19.515743,11064748850,-0.060302,0.277493,-9.769262,0.000148,-0.000648,0.001183,0.800046,0.657820,2.642416,778.93,15.00,highres
19.528513,11064757669,-0.055280,0.284747,-9.764532,-0.001653,0.001643,0.001215,0.800046,0.657820,2.642416,778.93,15.00,highres
19.536798,11064776766,-0.061820,0.283516,-9.776973,-0.000529,0.000851,0.001052,0.800046,0.657820,2.642416,778.93,15.00,highres
19.551828,11064782711,-0.067413,0.279625,-9.779164,-0.000019,-0.000493,0.000936,0.800046,0.657820,2.642416,778.93,15.00,highres
19.562101,11064796334,-0.060169,0.278336,-9.780980,-0.001815,0.001602,0.002192,0.800046,0.657820,2.642416,778.93,15.00,highres
19.570197,11064800641,-0.056389,0.278030,-9.778826,0.001260,0.000037,-0.000782,0.800046,0.657820,2.642416,778.92,15.00,highres
19.575339,11064813353,-0.062340,0.280257,-9.780876,-0.001446,0.002253,0.001547,0.799145,0.651568,2.637953,778.92,15.00,highres
19.588741,11064823195,-0.060531,0.280081,-9.775495,0.001070,-0.001525,-0.000120,0.802640,0.649196,2.641627,778.92,15.00,highres
19.595950,11064828585,-0.063271,0.279549,-9.775423,0.000222,-0.001149,0.000375,0.802640,0.649196,2.641627,778.92,15.00,highres
19.605387,11064845906,-0.063429,0.284109,-9.778811,0.001542,-0.000636,-0.000703,0.802640,0.649196,2.641627,778.92,15.00,highres
19.615668,11064850724,-0.059946,0.281278,-9.771300,0.000153,0.000753,0.000630,0.802640,0.649196,2.641627,778.92,15.00,highres
19.628989,11064862883,-0.054074,0.297407,-9.773207,0.001853,-0.000145,0.000892,0.802640,0.649196,2.641627,778.92,15.00,highres
19.638784,11064873993,-0.059048,0.285321,-9.760662,-0.000620,0.002031,0.002903,0.802640,0.649196,2.641627,778.92,15.00,highres
19.651555,11064882793,-0.052601,0.287163,-9.771512,0.000873,0.000912,0.000969,0.802640,0.649196,2.641627,778.92,15.00,highres
19.660992,11064893316,-0.054792,0.279596,-9.774713,-0.000182,0.000304,0.001025,0.802640,0.649196,2.641627,778.92,15.00,highres
19.670647,11064903002,-0.058096,0.283695,-9.782547,0.000864,-0.000309,0.000649,0.802640,0.649196,2.641627,778.92,15.00,highres
19.678114,11064912684,-0.052740,0.290007,-9.765870,-0.002910,0.002041,0.001528,0.802640,0.649196,2.641627,778.92,15.00,highres
19.688705,11064923062,-0.064898,0.275866,-9.768141,0.000704,-0.000751,-0.000622,0.802640,0.649196,2.641627,778.92,15.00,highres
19.696200,11064939317,-0.059922,0.285196,-9.777619,-0.001066,0.002006,0.000491,0.802640,0.649196,2.641627,778.92,15.00,highres
19.708432,11064942948,-0.067350,0.286826,-9.781458,0.000853,-0.000390,0.000295,0.800224,0.648344,2.634582,778.92,15.00,highres
19.716356,11064957177,-0.055134,0.273996,-9.776951,-0.001705,0.000317,0.000743,0.800224,0.648344,2.634582,778.92,15.00,highres
19.729810,11064960477,-0.054534,0.283272,-9.782877,0.001303,-0.000208,-0.000392,0.800224,0.648344,2.634582,778.92,15.00,highres
19.737903,11064973545,-0.054419,0.282930,-9.778031,-0.000761,0.002006,0.000600,0.798167,0.653025,2.633797,778.92,15.00,highres
19.751809,11064983326,-0.059235,0.273143,-9.771894,0.000682,0.000534,-0.000622,0.798167,0.653025,2.633797,778.92,15.00,highres
19.762126,11064990087,-0.056164,0.284223,-9.777463,-0.000150,0.000479,-0.000622,0.798167,0.653025,2.633797,778.92,15.00,highres
19.771057,11064996401,-0.059922,0.282377,-9.771806,-0.000879,0.002587,-0.000011,0.798167,0.653025,2.633797,778.92,15.00,highres
19.777297,11065005825,-0.059434,0.273863,-9.775863,0.000461,-0.002575,0.000600,0.798167,0.653025,2.633797,778.92,15.00,highres
19.788224,11065015864,-0.068586,0.271687,-9.776450,-0.000761,0.001395,0.001211,0.798167,0.653025,2.633797,778.92,15.00,highres
19.794903,11065021179,-0.070750,0.281178,-9.773079,0.000156,-0.000132,-0.000622,0.798167,0.653025,2.633797,778.92,15.00,highres
19.805015,11065027216,-0.068006,0.289328,-9.771354,0.001072,-0.000226,-0.001022,0.798167,0.653025,2.633797,778.91,15.00,highres
19.822759,11065040820,-0.058725,0.265826,-9.769036,0.001511,0.000098,0.000123,0.798167,0.653025,2.633797,778.91,15.00,highres
19.828937,11065063795,-0.065913,0.285977,-9.774412,-0.000124,0.000238,0.000349,0.798167,0.653025,2.633797,778.91,15.00,highres
19.836828,11065073852,-0.067777,0.271602,-9.792080,-0.001859,0.001347,0.001602,0.798167,0.653025,2.633797,778.91,15.00,highres
19.851654,11065080728,-0.072153,0.274256,-9.775605,-0.000878,0.000583,0.000405,0.798167,0.653025,2.633797,778.91,15.00,highres
19.862771,11065093827,-0.059096,0.281330,-9.767683,-0.002460,0.003094,0.002032,0.806343,0.649769,2.633549,778.91,15.00,highres
19.872183,11065100986,-0.055148,0.277587,-9.766992,-0.001682,0.000790,0.001214,0.806343,0.649769,2.633549,778.91,15.00,highres
19.875722,11065114262,-0.066925,0.271885,-9.783177,-0.001864,0.002617,0.001516,0.800394,0.652443,2.626203,778.91,15.00,highres
19.885785,11065122357,-0.059989,0.274495,-9.773167,0.000249,-0.000530,0.000617,0.800394,0.652443,2.626203,778.91,15.00,highres
19.896338,11065136481,-0.054376,0.285269,-9.780086,-0.001371,0.002200,0.000778,0.800394,0.652443,2.626203,778.91,15.00,highres
19.909542,11065141591,-0.057630,0.279295,-9.776951,0.000296,0.000226,-0.000177,0.800394,0.652443,2.626203,778.91,15.00,highres
19.914691,11065151046,-0.050977,0.274319,-9.773099,-0.000656,0.002815,0.001003,0.800394,0.652443,2.626203,778.91,15.00,highres
19.930843,11065160891,-0.054643,0.270833,-9.783113,0.000927,0.000463,-0.000767,0.800394,0.652443,2.626203,778.91,15.00,highres
19.937222,11065174446,-0.051432,0.277262,-9.765332,-0.002426,0.001312,0.000905,0.800394,0.652443,2.626203,778.91,15.00,highres
19.951600,11065186786,-0.067405,0.278665,-9.775757,0.001072,-0.001024,-0.000512,0.800394,0.652443,2.626203,778.91,15.00,highres
19.961949,11065193685,-0.055931,0.282772,-9.773603,-0.000991,0.002146,0.000938,0.800394,0.652443,2.626203,778.91,15.00,highres
19.971541,11065203417,-0.064559,0.279374,-9.767761,0.001416,0.000516,-0.000431,0.800394,0.652443,2.626203,778.91,15.00,highres
19.975331,11065219598,-0.047410,0.280964,-9.775439,-0.001100,0.002651,0.000871,0.800394,0.652443,2.626203,778.91,15.00,highres
19.989249,11065223316,-0.055086,0.283314,-9.783175,0.001444,-0.000776,-0.000180,0.800394,0.652443,2.626203,778.91,15.00,highres
19.996783,11065236629,-0.058973,0.281599,-9.771595,-0.001494,0.002556,0.001394,0.803148,0.651501,2.640429,778.91,15.00,highres
20.004365,11065249460,-0.058069,0.277047,-9.771630,0.000156,-0.000817,-0.001233,0.803148,0.651501,2.640429,778.91,15.00,highres
20.015418,11065253614,-0.059922,0.273996,-9.772404,-0.001035,0.001882,0.001118,0.788607,0.661246,2.635012,778.91,15.00,highres
20.029681,11065263917,-0.057528,0.279261,-9.784372,0.001438,-0.000009,-0.000011,0.788607,0.661246,2.635012,778.91,15.00,highres
20.037499,11065273940,-0.057151,0.276833,-9.777702,-0.001502,0.003358,0.002223,0.788607,0.661246,2.635012,778.91,15.00,highres
20.054272,11065283539,-0.052912,0.284087,-9.767615,0.000638,-0.001570,-0.001450,0.788607,0.661246,2.635012,778.91,15.00,highres
20.061687,11065293524,-0.055707,0.278988,-9.783954,-0.001165,0.002069,0.002091,0.788607,0.661246,2.635012,778.91,15.00,highres
20.069858,11065304132,-0.052740,0.282537,-9.780795,0.001157,-0.000047,-0.000597,0.788607,0.661246,2.635012,778.91,15.00,highres
20.074014,11065313395,-0.061147,0.290025,-9.762608,-0.001740,0.002557,0.001028,0.788607,0.661246,2.635012,778.91,15.00,highres
20.088211,11065326283,-0.057473,0.292308,-9.768663,0.001836,-0.000290,-0.000927,0.788607,0.661246,2.635012,778.91,15.00,highres
20.095306,11065336640,-0.067105,0.273902,-9.783729,-0.002452,0.001794,0.001352,0.788607,0.661246,2.635012,778.91,15.00,highres
20.110127,11065341810,-0.066388,0.281901,-9.779106,0.000587,0.000296,-0.000379,0.788607,0.661246,2.635012,778.91,15.00,highres
20.118809,11065356614,-0.062220,0.276916,-9.773649,-0.000814,0.002957,0.001264,0.788607,0.661246,2.635012,778.91,15.00,highres
20.131548,11065363860,-0.051543,0.276757,-9.783912,0.000172,0.001057,-0.000429,0.788607,0.661246,2.635012,778.91,15.00,highres
20.137151,11065373640,-0.064518,0.280483,-9.773601,-0.001421,0.001897,0.001211,0.799067,0.652937,2.634299,778.91,15.00,highres
20.151613,11065379347,-0.062920,0.272806,-9.773604,-0.000609,0.002315,0.001365,0.796488,0.649650,2.641143,778.91,15.00,highres
20.163021,11065391200,-0.071196,0.279872,-9.768813,-0.000716,0.001569,0.001886,0.796488,0.649650,2.641143,778.91,15.00,highres
20.171465,11065401171,-0.048783,0.278052,-9.780442,-0.000355,0.000429,-0.000927,0.796488,0.649650,2.641143,778.91,15.00,highres
20.175171,11065406645,-0.058961,0.284956,-9.775947,0.000461,-0.000437,0.000905,0.796488,0.649650,2.641143,778.91,15.00,highres
20.190948,11065416307,-0.052740,0.273996,-9.771208,-0.001066,0.001090,0.001211,0.796488,0.649650,2.641143,778.91,15.00,highres
20.194280,11065428781,-0.047952,0.284098,-9.768092,0.001191,-0.001711,-0.000249,0.796488,0.649650,2.641143,778.91,15.00,highres
20.210094,11065433792,-0.060501,0.284676,-9.770622,-0.001853,0.002544,0.001662,0.796488,0.649650,2.641143,778.92,15.00,highres
20.214307,11065443138,-0.057678,0.275952,-9.774632,0.000761,0.000821,-0.000024,0.796488,0.649650,2.641143,778.92,15.00,highres
20.231311,11065453707,-0.068083,0.276196,-9.775311,-0.002104,0.003076,0.001809,0.796488,0.649650,2.641143,778.92,15.00,highres
20.238571,11065458743,-0.069203,0.291197,-9.775473,-0.000155,0.001737,0.000587,0.796488,0.649650,2.641143,778.92,15.00,highres
20.252094,11065468993,-0.065890,0.278692,-9.780796,0.000637,-0.000277,0.000259,0.796488,0.649650,2.641143,778.92,15.00,highres
20.262303,11065482771,-0.067490,0.283468,-9.766444,0.000456,-0.000095,0.000282,0.796488,0.649650,2.641143,778.92,15.00,highres
20.271290,11065494460,-0.064860,0.279054,-9.769606,-0.001171,0.002650,0.002311,0.796488,0.649650,2.641143,778.92,15.00,highres
20.275040,11065514110,-0.061150,0.278236,-9.761625,0.000439,0.000472,0.001280,0.792449,0.657357,2.644945,778.92,15.00,highres
20.283990,11065527229,-0.047295,0.277888,-9.769881,0.001067,-0.001416,-0.000428,0.797574,0.643500,2.626364,778.91,15.00,highres
20.295716,11065534283,-0.055558,0.274499,-9.771813,-0.000687,0.001313,0.001310,0.797574,0.643500,2.626364,778.91,15.00,highres
20.305383,11065539782,-0.064693,0.279889,-9.780795,-0.001377,0.001737,0.001809,0.797574,0.643500,2.626364,778.91,15.00,highres
20.305383,11065554032,-0.066210,0.283647,-9.772181,-0.000149,0.002141,0.000584,0.797574,0.643500,2.626364,778.91,15.00,highres
20.305383,11065563599,-0.055777,0.291282,-9.777288,0.000836,-0.000423,-0.000940,0.797574,0.643500,2.626364,778.91,15.00,highres
20.305383,11065574134,-0.064805,0.285702,-9.772588,-0.001808,0.001358,0.002473,0.797574,0.643500,2.626364,778.91,15.00,highres
20.351083,11065581366,-0.066215,0.282117,-9.768501,-0.000863,0.000584,0.001586,0.797574,0.643500,2.626364,778.91,15.00,highres
20.360935,11065596242,-0.061101,0.284304,-9.780952,-0.001702,0.002578,0.002039,0.797574,0.643500,2.626364,778.91,15.00,highres
20.370737,11065604846,-0.057015,0.281466,-9.767191,0.001693,-0.000304,-0.000538,0.797574,0.643500,2.626364,778.91,15.00,highres
20.374590,11065609033,-0.049650,0.266161,-9.767467,0.001158,-0.000625,0.000709,0.797574,0.643500,2.626364,778.91,15.00,highres
20.389161,11065619844,-0.059932,0.275679,-9.777825,-0.000347,0.001816,0.001230,0.797574,0.643500,2.626364,778.91,15.00,highres
20.395697,11065624649,-0.065906,0.279219,-9.777223,0.001678,-0.000706,-0.000329,0.797574,0.643500,2.626364,778.91,15.00,highres
20.405761,11065638609,-0.060356,0.278444,-9.773817,-0.001377,0.002959,0.000587,0.799786,0.654311,2.634090,778.91,15.00,highres
20.414237,11065648731,-0.060500,0.285868,-9.772423,0.001091,0.000632,-0.000024,0.799786,0.654311,2.634090,778.91,15.00,highres
20.432328,11065654176,-0.054892,0.283612,-9.772350,-0.001702,0.001973,0.001415,0.793832,0.657500,2.639522,778.91,15.00,highres
20.437085,11065676408,-0.055116,0.276298,-9.773615,0.000168,-0.000356,0.000247,0.793832,0.657500,2.639522,778.91,15.00,highres
20.450612,11065681799,-0.059072,0.285146,-9.776790,0.000775,0.000515,-0.000635,0.793832,0.657500,2.639522,778.91,15.00,highres
20.461415,11065693786,-0.053874,0.273149,-9.769581,-0.001807,0.001737,0.002563,0.793832,0.657500,2.639522,778.91,15.00,highres
20.472313,11065701787,-0.060931,0.283173,-9.764483,-0.000530,0.000088,0.000430,0.793832,0.657500,2.639522,778.91,15.00,highres
20.475029,11065714058,-0.064083,0.276930,-9.778945,-0.001191,0.002174,0.001514,0.793832,0.657500,2.639522,778.91,15.00,highres
20.485262,11065724702,-0.062578,0.276790,-9.766152,0.000635,-0.001339,-0.000329,0.793832,0.657500,2.639522,778.91,15.00,highres
20.494936,11065737096,-0.066640,0.278001,-9.776759,-0.002293,0.002348,0.001948,0.793832,0.657500,2.639522,778.91,15.00,highres
20.515057,11065746532,-0.054373,0.278278,-9.771509,0.001555,-0.000950,-0.000086,0.793832,0.657500,2.639522,778.91,15.00,highres
20.516629,11065752199,-0.061154,0.269169,-9.776009,-0.000018,0.000535,0.001204,0.793832,0.657500,2.639522,778.91,15.00,highres
20.529073,11065763786,-0.072026,0.279889,-9.764483,0.001551,-0.001116,-0.000508,0.793832,0.657500,2.639522,778.91,15.00,highres
20.538052,11065769813,-0.069481,0.279889,-9.766432,0.000761,-0.001012,0.000587,0.793832,0.657500,2.639522,778.91,15.00,highres
20.551462,11065783808,-0.053226,0.284488,-9.765738,0.001902,-0.000674,0.000105,0.796951,0.652973,2.643579,778.91,15.00,highres
20.562558,11065796556,-0.066857,0.273904,-9.777205,-0.002109,0.001189,0.001566,0.796951,0.652973,2.643579,778.91,15.00,highres
20.570490,11065806805,-0.055116,0.283297,-9.782440,0.001517,-0.001317,-0.000024,0.791606,0.646273,2.633112,778.91,15.00,highres
20.579002,11065817347,-0.059166,0.280562,-9.777499,-0.002121,0.002176,0.001332,0.791606,0.646273,2.633112,778.91,15.00,highres
20.589122,11065824044,-0.054110,0.286002,-9.771092,0.000376,0.000177,0.000683,0.791606,0.646273,2.633112,778.91,15.00,highres
20.595418,11065834116,-0.043774,0.282872,-9.769334,-0.001166,0.001527,0.001316,0.791606,0.646273,2.633112,778.91,15.00,highres
20.605131,11065843927,-0.068284,0.278692,-9.776009,0.001067,-0.001928,-0.000635,0.791606,0.646273,2.633112,778.91,15.00,highres
20.615506,11065854494,-0.059904,0.277495,-9.768825,-0.001682,0.002043,0.000587,0.791606,0.646273,2.633112,778.91,15.00,highres
20.624740,11065858839,-0.057423,0.288269,-9.778752,-0.001535,0.001894,0.001048,0.791606,0.646273,2.633112,778.91,15.00,highres
20.624740,11065869107,-0.062298,0.283480,-9.761644,0.000150,-0.001928,-0.000329,0.791606,0.646273,2.633112,778.91,15.00,highres
20.650797,11065878872,-0.061101,0.284580,-9.771025,-0.001594,0.001701,0.000918,0.791606,0.646273,2.633112,778.91,15.00,highres
20.661800,11065891392,-0.055328,0.276017,-9.763333,0.000744,-0.000689,-0.000503,0.791606,0.646273,2.633112,778.91,15.00,highres
20.674372,11065901931,-0.050328,0.285115,-9.774959,0.000236,0.000367,0.000110,0.791606,0.646273,2.633112,778.91,15.00,highres
20.675340,11065909177,-0.051498,0.273372,-9.772390,0.000627,-0.001354,-0.000366,0.791606,0.646273,2.633112,778.91,15.00,highres
20.686442,11065918480,-0.063496,0.284281,-9.780098,-0.000872,0.002350,0.000996,0.798840,0.652578,2.641103,778.91,15.00,highres
20.703756,11065929430,-0.062298,0.267919,-9.767630,0.001040,-0.000228,0.000747,0.798840,0.652578,2.641103,778.91,15.00,highres
20.709887,11065939235,-0.056720,0.273369,-9.769403,-0.000294,0.001116,0.000126,0.808915,0.666482,2.627614,778.91,15.00,highres
20.714282,11065949510,-0.072503,0.281988,-9.777028,0.000543,-0.001404,0.000064,0.808915,0.666482,2.627614,778.91,15.00,highres
20.733946,11065959866,-0.051525,0.283480,-9.772417,-0.000250,0.002569,0.000608,0.808915,0.666482,2.627614,778.91,15.00,highres
20.737757,11065967798,-0.048917,0.287542,-9.772459,0.001372,-0.001317,-0.000635,0.808915,0.666482,2.627614,778.91,15.00,highres
20.751399,11065979294,-0.058180,0.266579,-9.774570,-0.001568,0.002348,0.001503,0.808915,0.666482,2.627614,778.91,15.00,highres
20.762540,11065988826,-0.066627,0.280809,-9.773797,0.001067,-0.000095,-0.000024,0.808915,0.666482,2.627614,778.91,15.00,highres
20.771283,11066007180,-0.052722,0.279236,-9.776660,0.000988,-0.001047,0.000283,0.808915,0.666482,2.627614,778.92,15.00,highres
20.775310,11066014007,-0.054391,0.281811,-9.776260,-0.001024,0.000107,0.001142,0.808915,0.666482,2.627614,778.92,15.00,highres
20.789678,11066019238,-0.055116,0.269116,-9.774810,-0.001377,0.002043,0.000893,0.808915,0.666482,2.627614,778.92,15.00,highres
20.796036,11066029532,-0.052354,0.272661,-9.778770,0.001372,0.000210,0.000587,0.808915,0.666482,2.627614,778.92,15.00,highres
20.811150,11066039320,-0.070212,0.278426,-9.772318,-0.001381,0.001254,0.001932,0.808915,0.666482,2.627614,778.92,15.00,highres
20.815515,11066044115,-0.065131,0.279636,-9.772417,0.001067,0.000821,0.000893,0.808915,0.666482,2.627614,778.92,15.00,highres
20.828873,11066057742,-0.064613,0.285874,-9.774204,-0.001071,0.001432,0.000893,0.801830,0.653149,2.640991,778.92,15.00,highres
20.836987,11066074186,-0.059308,0.276899,-9.761635,-0.001985,0.002651,0.001809,0.801830,0.653149,2.640991,778.92,15.00,highres
20.851556,11066084173,-0.057510,0.282283,-9.764797,0.000873,0.000069,0.000200,0.798125,0.665779,2.635086,778.92,15.00,highres
20.861291,11066089214,-0.063496,0.283480,-9.768826,-0.000155,-0.000401,0.000893,0.798125,0.665779,2.635086,778.92,15.00,highres
20.871303,11066105275,-0.059904,0.271298,-9.777963,0.000595,-0.000788,-0.000496,0.798125,0.665779,2.635086,778.92,15.00,highres
20.875037,11066116829,-0.055175,0.277044,-9.769512,-0.001515,0.002486,0.000863,0.798125,0.665779,2.635086,778.92,15.00,highres
20.883679,11066129793,-0.061864,0.281033,-9.779653,0.000894,-0.001145,0.000733,0.798125,0.665779,2.635086,778.92,15.00,highres
20.897384,11066134354,-0.061101,0.272707,-9.780796,-0.000735,0.001950,0.001702,0.798125,0.665779,2.635086,778.92,15.00,highres
20.908235,11066144890,-0.054627,0.282502,-9.764964,0.001924,-0.000539,0.000755,0.798125,0.665779,2.635086,778.92,15.00,highres
20.914169,11066152415,-0.059480,0.278568,-9.766596,0.000964,-0.000255,0.000282,0.798125,0.665779,2.635086,778.92,15.00,highres
20.929696,11066157143,-0.047934,0.277510,-9.782719,-0.001682,-0.000401,-0.000329,0.798125,0.665779,2.635086,778.91,15.00,highres
20.939704,11066174750,-0.057692,0.289937,-9.773759,-0.000941,0.002439,0.001198,0.798125,0.665779,2.635086,778.91,15.00,highres
20.951755,11066184259,-0.053382,0.280219,-9.771862,0.001288,-0.000733,0.000087,0.798125,0.665779,2.635086,778.91,15.00,highres
20.963831,11066195026,-0.053888,0.282836,-9.775487,-0.000916,0.003106,0.001198,0.798125,0.665779,2.635086,778.91,15.00,highres
20.969953,11066204589,-0.062298,0.278137,-9.772693,0.000874,-0.000354,0.000056,0.798702,0.650032,2.641961,778.91,15.00,highres
20.978864,11066214161,-0.061883,0.277324,-9.778940,-0.001377,0.002959,0.002114,0.798702,0.650032,2.641961,778.91,15.00,highres
20.988510,11066224326,-0.054020,0.280584,-9.769576,0.000952,-0.000566,0.000282,0.796773,0.655308,2.636524,778.91,15.00,highres
20.995497,11066230142,-0.057067,0.265525,-9.765678,0.001040,-0.000514,0.000225,0.796773,0.655308,2.636524,778.91,15.00,highres
21.005074,11066244889,-0.058483,0.277572,-9.771220,0.000399,-0.000830,-0.001618,0.796773,0.655308,2.636524,778.91,15.00,highres
21.021065,11066249514,-0.055988,0.288633,-9.772235,0.000761,0.000210,-0.001245,0.796773,0.655308,2.636524,778.91,15.00,highres
21.029195,11066262988,-0.063421,0.277644,-9.769947,-0.001234,0.000379,0.001509,0.796773,0.655308,2.636524,778.91,15.00,highres
21.036853,11066271968,-0.057018,0.280666,-9.781010,0.000572,0.000733,0.001038,0.796773,0.655308,2.636524,778.91,15.00,highres
21.051425,11066282229,-0.061368,0.270046,-9.776740,0.000456,0.000821,0.000893,0.796773,0.655308,2.636524,778.91,15.00,highres
21.062270,11066292087,-0.056392,0.274528,-9.775593,-0.000096,0.001130,0.001323,0.796773,0.655308,2.636524,778.91,15.00,highres
21.070551,11066297705,-0.053919,0.281086,-9.772417,-0.001040,0.003064,0.002220,0.796773,0.655308,2.636524,778.91,15.00,highres
21.075772,11066313162,-0.067037,0.280467,-9.785635,-0.000155,0.001126,0.001503,0.796773,0.655308,2.636524,778.91,15.00,highres
21.085121,11066316857,-0.052766,0.275751,-9.780146,-0.002465,0.002731,0.001809,0.796773,0.655308,2.636524,778.91,15.00,highres
21.095209,11066329738,-0.053919,0.280856,-9.763071,0.001205,-0.001761,-0.000162,0.796773,0.655308,2.636524,778.91,15.00,highres
21.107935,11066339387,-0.049171,0.279017,-9.772092,-0.001141,0.001265,0.000757,0.796773,0.655308,2.636524,778.91,15.00,highres
21.115364,11066347215,-0.059037,0.279889,-9.777587,0.000984,-0.000059,-0.000200,0.804020,0.656271,2.635006,778.91,15.00,highres
21.133939,11066362927,-0.050988,0.281850,-9.761539,0.000163,0.001419,0.000643,0.792151,0.655880,2.633380,778.91,15.00,highres
21.138502,11066368869,-0.048594,0.279359,-9.757516,0.001067,-0.000573,-0.000110,0.792151,0.655880,2.633380,778.91,15.00,highres
21.151806,11066379721,-0.055623,0.280593,-9.770375,-0.000493,0.003274,-0.000438,0.792151,0.655880,2.633380,778.91,15.00,highres
21.163691,11066389724,-0.058547,0.277203,-9.781116,0.000150,0.000210,0.000282,0.792151,0.655880,2.633380,778.91,15.00,highres
21.170202,11066400698,-0.058707,0.272707,-9.779600,-0.001111,0.002353,0.001353,0.792151,0.655880,2.633380,778.90,15.00,highres
21.176158,11066414766,-0.059904,0.270313,-9.780796,-0.000575,0.001156,0.001213,0.792151,0.655880,2.633380,778.90,15.00,highres
21.187840,11066424964,-0.058707,0.287071,-9.773614,0.001682,-0.001623,-0.000024,0.792151,0.655880,2.633380,778.90,15.00,highres
21.196380,11066431072,-0.055802,0.276042,-9.774555,0.001067,0.000210,0.000587,0.792151,0.655880,2.633380,778.90,15.00,highres
21.204800,11066445592,-0.068020,0.280836,-9.771281,0.001855,-0.000844,0.000570,0.792151,0.655880,2.633380,778.90,15.00,highres
21.214895,11066452449,-0.062831,0.284265,-9.768175,-0.000328,0.001384,0.001440,0.792151,0.655880,2.633380,778.90,15.00,highres
21.233836,11066461995,-0.054342,0.285077,-9.773392,0.001377,-0.000672,0.001023,0.792151,0.655880,2.633380,778.90,15.00,highres
21.237983,11066472229,-0.056246,0.280193,-9.765238,-0.001347,0.001034,0.000909,0.800425,0.658910,2.637969,778.90,15.00,highres
21.251291,11066485198,-0.056763,0.293649,-9.781989,0.001536,-0.001410,-0.001126,0.800425,0.658910,2.637969,778.90,15.00,highres
21.263147,11066489615,-0.063284,0.282084,-9.773870,0.001231,-0.002141,-0.000692,0.800425,0.658910,2.637969,778.90,15.00,highres
21.271648,11066502492,-0.053248,0.281830,-9.775227,-0.000661,0.001088,0.001598,0.805601,0.661993,2.631222,778.90,15.00,highres
21.276020,11066507575,-0.051777,0.281290,-9.776132,0.002284,-0.001644,-0.000178,0.805601,0.661993,2.631222,778.90,15.00,highres
21.285979,11066522546,-0.057893,0.278413,-9.764616,-0.001324,0.000826,0.000567,0.805601,0.661993,2.631222,778.90,15.00,highres
21.295180,11066532068,-0.058959,0.267736,-9.774565,-0.000639,-0.000047,0.001284,0.805601,0.661993,2.631222,778.90,15.00,highres
21.309458,11066545171,-0.047250,0.288670,-9.776618,0.000459,-0.000827,-0.000033,0.805601,0.661993,2.631222,778.90,15.00,highres
21.309458,11066557250,-0.049050,0.267167,-9.770420,-0.001076,0.002246,0.000968,0.805601,0.661993,2.631222,778.90,15.00,highres
21.309458,11066562483,-0.057998,0.278114,-9.768160,-0.000160,-0.000968,-0.000347,0.805601,0.661993,2.631222,778.90,15.00,highres
21.309458,11066574714,-0.065323,0.278638,-9.763873,-0.000822,0.002392,0.002148,0.805601,0.661993,2.631222,778.90,15.00,highres
21.351407,11066579791,-0.054932,0.275136,-9.770143,-0.000773,0.001481,0.001794,0.805601,0.661993,2.631222,778.90,15.00,highres
21.362016,11066597656,-0.061096,0.277570,-9.769580,-0.001076,0.001963,0.001420,0.805601,0.661993,2.631222,778.90,15.00,highres
21.371002,11066609238,-0.059214,0.280975,-9.771140,0.000146,-0.000840,0.000586,0.805601,0.661993,2.631222,778.90,15.00,highres
21.376817,11066612777,-0.057709,0.275514,-9.770570,-0.000601,0.002858,0.002210,0.801594,0.652304,2.637655,778.90,15.00,highres
21.393987,11066624745,-0.057980,0.283475,-9.755632,0.001062,-0.000878,-0.000216,0.801594,0.652304,2.637655,778.90,15.00,highres
21.395590,11066635177,-0.045156,0.281491,-9.764225,-0.002038,0.003568,0.000946,0.801594,0.652304,2.637655,778.90,15.00,highres
21.405313,11066642273,-0.050074,0.279835,-9.755070,-0.000466,-0.000356,0.001181,0.804636,0.652781,2.640611,778.90,15.00,highres
21.415220,11066655568,-0.053841,0.285966,-9.781905,-0.001848,0.002715,0.001971,0.804636,0.652781,2.640611,778.90,15.00,highres
21.429958,11066660904,-0.055542,0.282006,-9.781455,-0.000610,0.000748,-0.000347,0.804636,0.652781,2.640611,778.90,15.00,highres
21.437130,11066672442,-0.052351,0.281863,-9.778483,-0.000583,0.002205,0.000821,0.804636,0.652781,2.640611,778.90,15.00,highres
21.450528,11066687769,-0.053978,0.283198,-9.768304,0.001475,0.000543,0.000248,0.804636,0.652781,2.640611,778.90,15.00,highres
21.462004,11066694899,-0.047518,0.283803,-9.763388,-0.001373,0.000952,-0.000032,0.804636,0.652781,2.640611,778.90,15.00,highres
21.470713,11066705010,-0.052179,0.278028,-9.767445,0.000231,-0.000968,-0.000751,0.804636,0.652781,2.640611,778.90,15.00,highres
21.474422,11066710190,-0.056473,0.283758,-9.775707,0.000967,0.000514,0.000429,0.804636,0.652781,2.640611,778.90,15.00,highres
21.483761,11066726015,-0.062293,0.275047,-9.771767,0.001368,-0.001273,-0.000652,0.804636,0.652781,2.640611,778.91,15.00,highres
21.496184,11066729774,-0.063768,0.276523,-9.773242,0.001012,-0.000022,-0.000204,0.804636,0.652781,2.640611,778.91,15.00,highres
21.508444,11066746821,-0.057654,0.279311,-9.778275,0.001711,-0.000223,-0.001167,0.804636,0.652781,2.640611,778.91,15.00,highres
21.515581,11066753314,-0.055694,0.279222,-9.776586,-0.000949,0.001043,0.000905,0.801218,0.650055,2.641985,778.91,15.00,highres
21.528456,11066763090,-0.055418,0.286188,-9.777752,-0.000691,-0.000051,-0.000041,0.801218,0.650055,2.641985,778.91,15.00,highres
21.537763,11066775150,-0.053388,0.289703,-9.778569,-0.002126,0.000888,0.002231,0.801218,0.650055,2.641985,778.91,15.00,highres
21.551236,11066785624,-0.062860,0.281158,-9.775672,0.001352,-0.000325,-0.000459,0.792332,0.662142,2.644749,778.91,15.00,highres
21.561718,11066795347,-0.048134,0.271314,-9.774020,-0.002127,0.002941,0.002708,0.792332,0.662142,2.644749,778.91,15.00,highres
21.571116,11066799886,-0.051185,0.282373,-9.770522,-0.000746,0.000975,0.001449,0.792332,0.662142,2.644749,778.90,15.00,highres
21.575514,11066815121,-0.071357,0.278297,-9.775189,-0.002080,0.003483,0.001573,0.792332,0.662142,2.644749,778.90,15.00,highres
21.589635,11066820209,-0.065728,0.276764,-9.771767,-0.000859,0.001683,0.000146,0.792332,0.662142,2.644749,778.90,15.00,highres
21.597727,11066832474,-0.062155,0.276852,-9.765175,-0.001456,0.002046,0.001446,0.792332,0.662142,2.644749,778.90,15.00,highres
21.607428,11066837854,-0.054622,0.272606,-9.772741,-0.001381,0.002087,0.000570,0.792332,0.662142,2.644749,778.90,15.00,highres
21.614425,11066848754,-0.055788,0.281407,-9.769372,0.000449,-0.000658,0.000367,0.792332,0.662142,2.644749,778.90,15.00,highres
21.630691,11066858355,-0.057142,0.282725,-9.764923,-0.001992,0.000254,0.001181,0.792332,0.662142,2.644749,778.90,15.00,highres
21.638033,11066868062,-0.066449,0.265426,-9.772331,0.001673,0.000470,0.000090,0.792332,0.662142,2.644749,778.90,15.00,highres
21.651214,11066878425,-0.050195,0.272755,-9.769373,-0.000160,0.003614,0.001791,0.792332,0.662142,2.644749,778.91,15.00,highres
21.662770,11066888458,-0.068945,0.271062,-9.769902,0.001368,-0.000051,0.000570,0.800484,0.649108,2.644834,778.91,15.00,highres
21.669852,11066898588,-0.055583,0.274353,-9.784934,-0.002142,0.002848,0.001781,0.800484,0.649108,2.644834,778.91,15.00,highres
21.676985,11066908147,-0.060330,0.275910,-9.775161,0.000757,-0.000662,0.001181,0.800484,0.649108,2.644834,778.91,15.00,highres
21.684005,11066917317,-0.058663,0.284059,-9.778345,-0.001587,0.003237,0.000698,0.807620,0.650811,2.641601,778.91,15.00,highres
21.695808,11066923197,-0.057765,0.284007,-9.768401,0.001539,-0.001101,0.000741,0.807620,0.650811,2.641601,778.91,15.00,highres
21.708091,11066935470,-0.054683,0.278136,-9.774857,-0.001701,0.002925,0.001273,0.807620,0.650811,2.641601,778.91,15.00,highres
21.721902,11066948702,-0.055110,0.273850,-9.763388,0.000745,-0.002372,-0.000505,0.807620,0.650811,2.641601,778.91,15.00,highres
21.730090,11066956624,-0.047089,0.281635,-9.767100,-0.000228,0.002765,0.001961,0.807620,0.650811,2.641601,778.90,15.00,highres
21.738183,11066970880,-0.061851,0.286889,-9.770699,0.000475,-0.000515,-0.000175,0.807620,0.650811,2.641601,778.90,15.00,highres
21.750699,11066976759,-0.061096,0.283552,-9.774900,-0.001767,0.003534,0.001904,0.807620,0.650811,2.641601,778.90,15.00,highres
21.761389,11066990281,-0.049669,0.279327,-9.782540,0.001114,-0.001444,-0.000466,0.807620,0.650811,2.641601,778.90,15.00,highres
21.772345,11066998086,-0.053913,0.283426,-9.771766,-0.000560,0.000349,0.000664,0.807620,0.650811,2.641601,778.90,15.00,highres
21.774797,11067008329,-0.059137,0.276679,-9.772638,0.000764,-0.001685,-0.000240,0.807620,0.650811,2.641601,778.90,15.00,highres
21.788838,11067018198,-0.055452,0.276931,-9.770913,-0.001687,0.001476,0.000570,0.807620,0.650811,2.641601,778.90,15.00,highres
21.795182,11067032630,-0.070672,0.276244,-9.781343,0.000141,0.001327,0.001184,0.804604,0.651511,2.633320,778.90,15.00,highres
21.804285,11067037798,-0.070672,0.271456,-9.774160,-0.001076,0.002392,0.000875,0.804604,0.651511,2.633320,778.90,15.00,highres
21.814584,11067050410,-0.060963,0.285554,-9.775093,0.000663,-0.002413,-0.000265,0.804604,0.651511,2.633320,778.90,15.00,highres
21.829737,11067055376,-0.064976,0.278184,-9.774616,-0.001198,0.002518,0.001426,0.804525,0.661423,2.629265,778.90,15.00,highres
21.837870,11067060860,-0.063750,0.282573,-9.774931,0.000814,0.001942,0.000817,0.804525,0.661423,2.629265,778.90,15.00,highres
21.850821,11067083388,-0.057830,0.287994,-9.768723,0.000460,0.000189,0.000079,0.804525,0.661423,2.629265,778.90,15.00,highres
21.861740,11067092662,-0.048514,0.279223,-9.766872,-0.001238,0.001189,-0.000035,0.804525,0.661423,2.629265,778.90,15.00,highres
21.871573,11067105646,-0.057094,0.276348,-9.779736,-0.000220,-0.000847,0.000570,0.804525,0.661423,2.629265,778.90,15.00,highres
21.877817,11067116815,-0.049847,0.277683,-9.771532,-0.001380,0.002880,0.001241,0.804525,0.661423,2.629265,778.90,15.00,highres
21.884267,11067124216,-0.062219,0.279349,-9.769755,0.000211,0.000146,0.000406,0.804525,0.661423,2.629265,778.90,15.00,highres
21.896391,11067131430,-0.061096,0.272867,-9.773808,0.000110,-0.000466,0.000390,0.804525,0.661423,2.629265,778.90,15.00,highres
21.910084,11067142805,-0.056308,0.278638,-9.772964,-0.000465,0.001170,-0.000347,0.804525,0.661423,2.629265,778.90,15.00,highres
21.922727,11067155760,-0.056726,0.275167,-9.771887,-0.001092,0.002870,0.001024,0.804525,0.661423,2.629265,778.90,15.00,highres
21.929309,11067165301,-0.064855,0.281083,-9.769811,0.001222,-0.000544,-0.000666,0.804525,0.661423,2.629265,778.90,15.00,highres
21.938482,11067175395,-0.063571,0.285944,-9.766687,-0.002161,0.002087,0.001486,0.805833,0.652518,2.639954,778.90,15.00,highres
21.951411,11067186638,-0.060262,0.281866,-9.774524,0.001673,-0.000477,-0.001078,0.805833,0.652518,2.639954,778.90,15.00,highres
21.956646,11067192824,-0.053893,0.281052,-9.767763,0.000271,-0.000375,0.000121,0.805833,0.652518,2.639954,778.90,15.00,highres
21.971492,11067206440,-0.055575,0.270866,-9.768105,0.001280,0.000047,-0.000456,0.796812,0.659178,2.647030,778.91,15.00,highres
21.975913,11067212009,-0.061321,0.273886,-9.776519,0.000464,-0.000369,-0.000253,0.796812,0.659178,2.647030,778.91,15.00,highres
21.994829,11067218878,-0.061800,0.270963,-9.769654,-0.001381,0.002296,0.001203,0.796812,0.659178,2.647030,778.91,15.00,highres
21.995733,11067229207,-0.063490,0.276244,-9.768175,0.000146,-0.001273,-0.000041,0.796812,0.659178,2.647030,778.91,15.00,highres
22.006317,11067245474,-0.065876,0.267270,-9.767590,0.001827,-0.001273,0.000420,0.796812,0.659178,2.647030,778.91,15.00,highres
22.016297,11067251698,-0.057505,0.271456,-9.768174,0.000484,-0.000031,0.001486,0.796812,0.659178,2.647030,778.91,15.00,highres
22.029947,11067266507,-0.060905,0.286053,-9.770221,0.001535,-0.000573,-0.001066,0.796812,0.659178,2.647030,778.91,15.00,highres
22.037006,11067275645,-0.049858,0.287296,-9.767990,-0.000747,0.002063,0.001956,0.796812,0.659178,2.647030,778.91,15.00,highres
22.052595,11067280660,-0.060211,0.272469,-9.768175,-0.000160,0.002698,-0.000652,0.796812,0.659178,2.647030,778.91,15.00,highres
22.062320,11067290476,-0.048547,0.279505,-9.769950,0.000322,0.000631,-0.000223,0.796812,0.659178,2.647030,778.91,15.00,highres
22.071123,11067301333,-0.063564,0.272233,-9.761771,0.000146,0.003003,0.000875,0.796812,0.659178,2.647030,778.91,15.00,highres
22.074394,11067313892,-0.059401,0.277939,-9.771564,0.000532,0.001585,0.000604,0.799982,0.656296,2.635919,778.91,15.00,highres
22.086567,11067318433,-0.062811,0.294611,-9.773535,-0.000541,0.002900,0.001791,0.799982,0.656296,2.635919,778.91,15.00,highres
22.104720,11067329417,-0.061620,0.279793,-9.776597,0.000451,-0.000799,-0.000347,0.799982,0.656296,2.635919,778.91,15.00,highres
22.114034,11067336495,-0.048516,0.273870,-9.781932,-0.000454,0.002517,0.001927,0.799702,0.647740,2.638108,778.91,15.00,highres
22.115917,11067349104,-0.059311,0.285369,-9.784325,0.001820,-0.000047,-0.000501,0.799702,0.647740,2.638108,778.91,15.00,highres
22.135224,11067358469,-0.058387,0.270511,-9.778445,-0.001076,0.001170,0.001181,0.799702,0.647740,2.638108,778.92,15.00,highres
22.141827,11067365750,-0.062211,0.275895,-9.775359,0.000531,0.000061,0.000072,0.799702,0.647740,2.638108,778.92,15.00,highres
22.151165,11067376569,-0.060074,0.275047,-9.771708,-0.001381,0.002698,0.001486,0.799702,0.647740,2.638108,778.92,15.00,highres
22.161646,11067386309,-0.055349,0.278644,-9.768170,0.001599,-0.001380,-0.001453,0.799702,0.647740,2.638108,778.92,15.00,highres
22.163302,11067401049,-0.052284,0.282661,-9.765350,-0.000941,0.000798,0.001062,0.799702,0.647740,2.638108,778.92,15.00,highres
22.181448,11067406100,-0.055463,0.279835,-9.769656,0.001353,0.000018,0.000695,0.799702,0.647740,2.638108,778.92,15.00,highres
22.187903,11067429131,-0.067081,0.272653,-9.772963,-0.000516,0.000347,0.000361,0.799702,0.647740,2.638108,778.92,15.00,highres
22.194965,11067433119,-0.066885,0.276440,-9.774883,-0.002113,0.001468,0.001478,0.799702,0.647740,2.638108,778.92,15.00,highres
22.203151,11067442822,-0.056308,0.279835,-9.768857,0.000146,0.001781,0.001486,0.799702,0.647740,2.638108,778.92,15.00,highres
22.215108,11067448898,-0.046314,0.281830,-9.776527,-0.000466,0.000903,0.001164,0.799702,0.647740,2.638108,778.92,15.00,highres
22.230759,11067463823,-0.053911,0.270250,-9.770518,0.000523,0.000675,-0.001046,0.800816,0.651113,2.636443,778.92,15.00,highres
22.237326,11067468590,-0.054518,0.267903,-9.774108,0.000145,0.000598,-0.000974,0.800816,0.651113,2.636443,778.92,15.00,highres
22.251078,11067486763,-0.049087,0.279501,-9.771408,-0.000095,0.000116,-0.000545,0.795165,0.659256,2.632441,778.92,15.00,highres
22.262669,11067493387,-0.055813,0.262363,-9.778421,-0.001134,0.003398,0.000974,0.795165,0.659256,2.632441,778.92,15.00,highres
22.271196,11067503138,-0.068897,0.291221,-9.775911,-0.000466,0.001209,-0.000855,0.795165,0.659256,2.632441,778.92,15.00,highres
22.275473,11067514336,-0.056899,0.284021,-9.771868,-0.002640,0.002430,0.000705,0.795165,0.659256,2.632441,778.92,15.00,highres
22.295788,11067518518,-0.059393,0.276738,-9.774995,-0.001369,0.002377,0.001829,0.795165,0.659256,2.632441,778.91,15.00,highres
22.304022,11067523217,-0.051517,0.276235,-9.778894,-0.000160,0.000598,-0.000668,0.795165,0.659256,2.632441,778.91,15.00,highres
22.306909,11067530718,-0.047477,0.279602,-9.782488,-0.000466,0.001514,-0.000974,0.795165,0.659256,2.632441,778.91,15.00,highres
22.306909,11067553171,-0.061094,0.280711,-9.777830,0.000178,0.000114,-0.000203,0.795165,0.659256,2.632441,778.91,15.00,highres
22.306909,11067564052,-0.051500,0.277082,-9.774275,0.001127,-0.000504,0.000368,0.795165,0.659256,2.632441,778.91,15.00,highres
22.306909,11067577106,-0.056951,0.282772,-9.769051,-0.002181,0.002289,0.000906,0.795165,0.659256,2.632441,778.91,15.00,highres
22.351097,11067584043,-0.055485,0.282220,-9.778864,-0.000459,0.000185,0.000141,0.795165,0.659256,2.632441,778.91,15.00,highres
22.362207,11067593372,-0.050320,0.269640,-9.764644,-0.001676,0.001497,0.001003,0.796366,0.652357,2.632497,778.91,15.00,highres
22.370363,11067603311,-0.060393,0.271447,-9.772456,-0.000160,-0.000624,-0.000057,0.796366,0.652357,2.632497,778.91,15.00,highres
22.374703,11067608960,-0.067671,0.268421,-9.790880,0.001062,-0.000013,0.000248,0.796366,0.652357,2.632497,778.91,15.00,highres
22.391590,11067624221,-0.050638,0.275276,-9.773706,0.000960,0.000415,-0.000383,0.796366,0.652357,2.632497,778.91,15.00,highres
22.395721,11067636306,-0.062291,0.278028,-9.781296,-0.001813,0.003167,0.001829,0.793199,0.660141,2.638140,778.91,15.00,highres
22.403700,11067646231,-0.053082,0.280931,-9.761955,0.001822,0.000073,-0.000778,0.793199,0.660141,2.638140,778.91,15.00,highres
22.413970,11067653648,-0.065053,0.274670,-9.768861,0.000086,0.001185,0.000142,0.793199,0.660141,2.638140,778.91,15.00,highres
22.431095,11067663183,-0.059602,0.287156,-9.769844,0.000934,0.001514,-0.000057,0.793199,0.660141,2.638140,778.91,15.00,highres
22.437177,11067675778,-0.047362,0.277714,-9.777910,-0.001404,0.003298,0.001235,0.793199,0.660141,2.638140,778.91,15.00,highres
22.452178,11067686800,-0.052216,0.271150,-9.770114,-0.000287,-0.001183,-0.000668,0.793199,0.660141,2.638140,778.91,15.00,highres
22.461036,11067693226,-0.050914,0.286341,-9.780157,-0.000548,0.001597,0.000807,0.793199,0.660141,2.638140,778.91,15.00,highres
22.471652,11067703942,-0.068089,0.283637,-9.778644,0.000877,-0.000865,0.000184,0.793199,0.660141,2.638140,778.91,15.00,highres
22.475640,11067711855,-0.064685,0.279826,-9.779669,0.001325,-0.001619,-0.000199,0.793199,0.660141,2.638140,778.91,15.00,highres
22.484179,11067717579,-0.058112,0.281091,-9.773522,-0.001987,0.003197,0.001775,0.793199,0.660141,2.638140,778.91,15.00,highres
22.496136,11067731399,-0.053442,0.282689,-9.776713,0.000862,-0.001472,-0.000070,0.805206,0.659192,2.637129,778.91,15.00,highres
22.510458,11067746876,-0.048564,0.273282,-9.772990,0.000634,-0.001292,0.000736,0.805206,0.659192,2.637129,778.91,15.00,highres
22.515080,11067753544,-0.053335,0.278629,-9.769053,-0.000726,0.001537,0.001583,0.805206,0.659192,2.637129,778.91,15.00,highres
22.528796,11067764058,-0.054914,0.279437,-9.786191,0.001928,0.001308,0.000071,0.796264,0.659202,2.642344,778.91,15.00,highres
22.538197,11067773534,-0.059782,0.277033,-9.777358,-0.001192,0.001619,0.001670,0.796264,0.659202,2.642344,778.91,15.00,highres
22.552567,11067784485,-0.045532,0.281510,-9.771231,0.001978,0.000598,0.000859,0.796264,0.659202,2.642344,778.91,15.00,highres
22.562480,11067789179,-0.049126,0.279220,-9.761545,0.001567,-0.000624,-0.000310,0.796264,0.659202,2.642344,778.91,15.00,highres
22.570285,11067801532,-0.057503,0.279826,-9.776502,0.000756,0.001209,0.001164,0.796264,0.659202,2.642344,778.91,15.00,highres
22.576209,11067813407,-0.057599,0.278629,-9.771714,-0.000329,0.001567,0.000838,0.796264,0.659202,2.642344,778.91,15.00,highres
22.595482,11067828330,-0.055742,0.278524,-9.767348,-0.000160,0.001514,0.000859,0.796264,0.659202,2.642344,778.91,15.00,highres
22.597145,11067833801,-0.042766,0.280349,-9.765578,-0.000140,0.001837,0.001526,0.796264,0.659202,2.642344,778.91,15.00,highres
22.605591,11067847097,-0.049082,0.274130,-9.767876,-0.000539,0.000187,0.000627,0.796264,0.659202,2.642344,778.92,15.00,highres
22.614152,11067854081,-0.056964,0.278868,-9.767466,-0.001591,0.001048,0.000320,0.796264,0.659202,2.642344,778.92,15.00,highres
22.629891,11067866040,-0.057852,0.277594,-9.760081,0.000823,-0.001049,0.000129,0.796264,0.659202,2.642344,778.92,15.00,highres
22.637247,11067878077,-0.053191,0.285817,-9.779129,-0.001382,0.001990,0.001832,0.800837,0.655826,2.639329,778.92,15.00,highres
22.650572,11067883495,-0.061094,0.284614,-9.771714,0.000451,-0.000319,-0.000057,0.800837,0.655826,2.639329,778.92,15.00,highres
22.660992,11067894082,-0.055178,0.279709,-9.767513,-0.001856,0.002449,0.001015,0.800837,0.655826,2.639329,778.92,15.00,highres
22.671390,11067903416,-0.056223,0.289878,-9.771713,0.000551,0.000376,0.000390,0.800837,0.655826,2.639329,778.92,15.00,highres
22.679288,11067915825,-0.043023,0.286274,-9.784148,-0.001372,0.003643,0.002386,0.802510,0.651598,2.640413,778.92,15.00,highres
22.683223,11067929817,-0.053561,0.276585,-9.768474,0.000554,-0.000324,-0.000574,0.802510,0.651598,2.640413,778.92,15.00,highres
22.702145,11067933607,-0.049032,0.284073,-9.772957,-0.001088,0.002597,0.002697,0.802510,0.651598,2.640413,778.92,15.00,highres
22.708665,11067946379,-0.051815,0.281019,-9.770217,0.001825,0.000216,-0.000515,0.802510,0.651598,2.640413,778.92,15.00,highres
22.715822,11067951459,-0.054383,0.283417,-9.771372,0.000581,0.000783,-0.000373,0.802510,0.651598,2.640413,778.92,15.00,highres
22.729676,11067964124,-0.063339,0.276535,-9.775005,-0.000617,-0.000587,-0.000057,0.802510,0.651598,2.640413,778.92,15.00,highres
22.742600,11067974004,-0.060478,0.280883,-9.772911,-0.000976,0.002550,0.001555,0.802510,0.651598,2.640413,778.92,15.00,highres
22.750934,11067978827,-0.053970,0.276654,-9.775334,-0.001687,0.001514,0.000248,0.802510,0.651598,2.640413,778.92,15.00,highres
22.762703,11067988841,-0.060476,0.276121,-9.775922,-0.000160,0.000598,-0.000057,0.802510,0.651598,2.640413,778.92,15.00,highres
22.770080,11067996247,-0.057221,0.286374,-9.764148,-0.001066,0.002578,0.001164,0.802510,0.651598,2.640413,778.92,15.00,highres
22.780618,11068006979,-0.055163,0.281785,-9.772422,0.000756,-0.000319,-0.000383,0.797661,0.648641,2.646188,778.92,15.00,highres
22.792774,11068019844,-0.051210,0.288376,-9.759130,-0.001032,0.004197,0.001917,0.797661,0.648641,2.646188,778.92,15.00,highres
22.795469,11068026789,-0.062403,0.284365,-9.774108,0.000451,0.000529,-0.000589,0.797661,0.648641,2.646188,778.92,15.00,highres
22.804701,11068038623,-0.058650,0.282659,-9.774743,-0.000371,0.001419,0.001242,0.797661,0.648641,2.646188,778.92,15.00,highres
22.815182,11068044861,-0.063900,0.281395,-9.773658,0.001055,-0.000605,-0.000967,0.798602,0.646042,2.641428,778.92,15.00,highres
22.830783,11068061692,-0.053511,0.278799,-9.775476,-0.000466,0.003041,0.000859,0.798602,0.646042,2.641428,778.92,15.00,highres
22.837166,11068066945,-0.049123,0.289403,-9.774108,0.001935,-0.001759,-0.000930,0.798602,0.646042,2.641428,778.92,15.00,highres
22.845584,11068079869,-0.063456,0.280268,-9.771682,-0.001146,0.003822,0.001164,0.798602,0.646042,2.641428,778.91,15.00,highres
22.862287,11068091538,-0.060006,0.284478,-9.769347,-0.000575,0.000097,0.000847,0.798602,0.646042,2.641428,778.91,15.00,highres
22.870868,11068096465,-0.050172,0.287157,-9.771207,-0.002767,0.003503,0.001634,0.798602,0.646042,2.641428,778.91,15.00,highres
22.875308,11068108963,-0.057194,0.272605,-9.776676,0.001585,0.000772,-0.000711,0.798602,0.646042,2.641428,778.91,15.00,highres
22.885376,11068114440,-0.054163,0.279727,-9.760743,-0.000726,0.002533,0.001504,0.798602,0.646042,2.641428,778.91,15.00,highres
22.896799,11068129118,-0.051789,0.288015,-9.765730,0.000593,-0.001312,0.000455,0.798602,0.646042,2.641428,778.91,15.00,highres
22.911972,11068139145,-0.064350,0.277288,-9.775353,-0.001382,0.001514,0.001775,0.798602,0.646042,2.641428,778.91,15.00,highres
22.914293,11068149225,-0.071676,0.282220,-9.766551,0.000156,-0.000149,-0.000306,0.800537,0.655863,2.638413,778.91,15.00,highres
22.928914,11068156439,-0.062880,0.278826,-9.762478,-0.001880,0.002848,0.001052,0.800537,0.655863,2.638413,778.91,15.00,highres
22.936775,11068169517,-0.051517,0.284614,-9.774107,0.001248,-0.000058,0.000062,0.800537,0.655863,2.638413,778.91,15.00,highres
22.952548,11068182314,-0.059897,0.280924,-9.770517,0.001317,-0.000358,-0.000490,0.805904,0.657706,2.635258,778.91,15.00,highres
22.962160,11068187431,-0.059897,0.272417,-9.772588,0.001062,-0.000930,-0.001279,0.805904,0.657706,2.635258,778.91,15.00,highres
22.971519,11068202855,-0.061462,0.273841,-9.764926,0.000145,0.000903,0.001164,0.805904,0.657706,2.635258,778.91,15.00,highres
22.975666,11068206895,-0.057740,0.275859,-9.765185,0.001672,-0.000751,0.000443,0.805904,0.657706,2.635258,778.91,15.00,highres
22.989854,11068211507,-0.047770,0.265150,-9.769529,0.000145,0.000292,-0.000057,0.805904,0.657706,2.635258,778.91,15.00,highres
22.997222,11068224208,-0.055063,0.285074,-9.765314,0.001470,0.000798,0.000043,0.805904,0.657706,2.635258,778.91,15.00,highres
23.005330,11068234214,-0.048598,0.287911,-9.766108,-0.001382,0.003652,0.001470,0.805904,0.657706,2.635258,778.91,15.00,highres
23.014288,11068246410,-0.050360,0.281063,-9.772253,0.000756,-0.001235,-0.000974,0.805904,0.657706,2.635258,778.91,15.00,highres
23.033759,11068251544,-0.053911,0.289659,-9.766928,0.000277,0.001077,0.000913,0.805904,0.657706,2.635258,778.91,15.00,highres
23.039784,11068272771,-0.049677,0.276847,-9.779611,0.000163,0.001302,0.000759,0.805904,0.657706,2.635258,778.91,15.00,highres
23.050882,11068286722,-0.053911,0.285811,-9.759744,0.001440,-0.001147,-0.000363,0.805904,0.657706,2.635258,778.91,15.00,highres
23.061845,11068294381,-0.047742,0.287915,-9.766336,-0.000879,0.001507,0.000207,0.793556,0.658627,2.641064,778.91,15.00,highres
23.072020,11068303945,-0.056306,0.282740,-9.765721,0.002153,-0.000010,-0.000449,0.793556,0.658627,2.641064,778.91,15.00,highres
23.077255,11068315095,-0.052714,0.276235,-9.778897,-0.001687,0.002430,0.002386,0.793556,0.658627,2.641064,778.91,15.00,highres
23.084338,11068319466,-0.044059,0.279473,-9.778483,-0.000521,0.001409,-0.000343,0.793556,0.658627,2.641064,778.91,15.00,highres
23.095306,11068334263,-0.056175,0.282488,-9.778629,-0.000501,0.001601,0.001684,0.795403,0.653907,2.635917,778.91,15.00,highres
23.108927,11068347583,-0.050320,0.276235,-9.765729,0.000927,-0.000794,-0.000363,0.795403,0.653907,2.635917,778.91,15.00,highres
23.122706,11068356511,-0.055353,0.281738,-9.768359,-0.001504,0.003102,0.001592,0.795403,0.653907,2.635917,778.91,15.00,highres
23.132297,11068364224,-0.060623,0.272310,-9.768692,-0.000075,-0.000769,-0.000423,0.795403,0.653907,2.635917,778.91,15.00,highres
23.137644,11068372726,-0.045936,0.281831,-9.778088,0.000348,-0.000212,0.000151,0.795403,0.653907,2.635917,778.91,15.00,highres
23.150104,11068384633,-0.067079,0.290114,-9.774669,0.001386,-0.000409,-0.000291,0.795403,0.653907,2.635917,778.91,15.00,highres
23.163731,11068396892,-0.059153,0.280651,-9.776500,-0.000887,0.002736,0.000933,0.795403,0.653907,2.635917,778.91,15.00,highres
23.169807,11068407067,-0.059614,0.281373,-9.763617,0.000944,-0.001540,-0.000786,0.795403,0.653907,2.635917,778.92,15.00,highres
23.176067,11068416989,-0.058800,0.281772,-9.773660,-0.002451,0.002736,0.001317,0.795403,0.653907,2.635917,778.92,15.00,highres
23.188880,11068421721,-0.048451,0.277957,-9.767599,0.000006,0.001353,-0.000668,0.795403,0.653907,2.635917,778.92,15.00,highres
23.196670,11068434081,-0.049742,0.275347,-9.770478,-0.000556,0.002826,0.001515,0.791355,0.662311,2.637970,778.92,15.00,highres
23.206768,11068439627,-0.052634,0.274877,-9.762777,-0.001035,0.001126,0.000960,0.791355,0.662311,2.637970,778.92,15.00,highres
23.214461,11068457195,-0.061811,0.284835,-9.766021,-0.001708,0.001896,0.001305,0.791355,0.662311,2.637970,778.92,15.00,highres
23.233129,11068464397,-0.055101,0.276204,-9.777298,-0.000007,-0.000665,-0.000684,0.794100,0.657497,2.641069,778.92,15.00,highres
23.237509,11068474587,-0.053379,0.277581,-9.783447,-0.001498,0.002178,0.002282,0.794100,0.657497,2.641069,778.92,15.00,highres
23.252228,11068483983,-0.048300,0.285345,-9.779692,0.001428,-0.000972,-0.000684,0.794100,0.657497,2.641069,778.92,15.00,highres
23.262477,11068495188,-0.058233,0.297265,-9.769640,-0.002107,0.002134,0.001208,0.794100,0.657497,2.641069,778.92,15.00,highres
23.270759,11068504240,-0.055425,0.275655,-9.769567,0.001504,-0.000084,-0.001295,0.794100,0.657497,2.641069,778.92,15.00,highres
23.278192,11068509254,-0.052707,0.273810,-9.773706,0.000458,-0.001223,0.000537,0.794100,0.657497,2.641069,778.92,15.00,highres
23.290774,11068519798,-0.047424,0.278878,-9.779621,-0.000537,0.002599,0.000616,0.794100,0.657497,2.641069,778.92,15.00,highres
23.295683,11068529458,-0.050864,0.284583,-9.767753,0.000458,-0.000918,0.001454,0.794100,0.657497,2.641069,778.92,15.00,highres
23.310775,11068539180,-0.051510,0.277401,-9.772511,-0.001152,0.003191,-0.000129,0.794100,0.657497,2.641069,778.92,15.00,highres
23.310775,11068549197,-0.051510,0.277401,-9.771313,0.001392,-0.001459,0.000215,0.794100,0.657497,2.641069,778.92,15.00,highres
23.310775,11068559892,-0.046601,0.282938,-9.774843,-0.000240,0.001535,0.001541,0.794100,0.657497,2.641069,778.91,15.00,highres
23.310775,11068564769,-0.050873,0.280113,-9.768357,0.001856,-0.001047,-0.000524,0.796525,0.661719,2.639349,778.91,15.00,highres
23.351908,11068579587,-0.049845,0.275910,-9.765708,-0.001541,0.001200,0.001739,0.796525,0.661719,2.639349,778.91,15.00,highres
23.358122,11068584188,-0.054254,0.286878,-9.764329,0.001255,-0.001737,-0.000990,0.796525,0.661719,2.639349,778.91,15.00,highres
23.370690,11068597748,-0.058449,0.278372,-9.769630,-0.001592,0.002835,0.001584,0.796198,0.658728,2.637022,778.91,15.00,highres
23.374264,11068609460,-0.054530,0.281674,-9.773651,-0.000020,-0.001223,0.000006,0.796198,0.658728,2.637022,778.91,15.00,highres
23.388666,11068619470,-0.051208,0.286366,-9.772217,-0.001069,0.002747,0.001148,0.796198,0.658728,2.637022,778.91,15.00,highres
23.395940,11068624488,-0.054222,0.282899,-9.766208,0.000997,-0.000162,-0.000073,0.796198,0.658728,2.637022,778.91,15.00,highres
23.405999,11068635088,-0.054520,0.288174,-9.778603,-0.001374,0.000609,0.002065,0.796198,0.658728,2.637022,778.91,15.00,highres
23.415312,11068645646,-0.051510,0.281126,-9.791091,0.001532,-0.001389,-0.000536,0.796198,0.658728,2.637022,778.91,15.00,highres
23.429493,11068653770,-0.052162,0.285022,-9.776100,0.000052,0.000690,0.000965,0.796198,0.658728,2.637022,778.91,15.00,highres
23.437369,11068676866,-0.052413,0.290662,-9.780528,-0.000683,0.002587,0.000312,0.796198,0.658728,2.637022,778.91,15.00,highres
23.452651,11068682261,-0.046093,0.276224,-9.786815,0.000323,0.000459,-0.000069,0.796198,0.658728,2.637022,778.91,15.00,highres
23.462268,11068694724,-0.051859,0.284509,-9.778072,-0.000400,0.001041,0.000350,0.796198,0.658728,2.637022,778.91,15.00,highres
23.471099,11068705602,-0.051833,0.280163,-9.774535,0.000858,-0.001211,-0.000379,0.796198,0.658728,2.637022,778.91,15.00,highres
23.475078,11068716720,-0.046777,0.287395,-9.774794,-0.001268,0.001725,0.001880,0.796439,0.650247,2.639508,778.91,15.00,highres
23.483066,11068722745,-0.043963,0.280498,-9.771886,-0.000763,0.000915,0.000537,0.796439,0.650247,2.639508,778.91,15.00,highres
23.495685,11068734841,-0.050892,0.291690,-9.776793,-0.001288,0.001985,0.001388,0.796439,0.650247,2.639508,778.91,15.00,highres
23.508830,11068739500,-0.065172,0.292384,-9.775028,-0.001875,0.002332,0.000393,0.790536,0.657793,2.643840,778.91,15.00,highres
23.515812,11068752287,-0.057370,0.275955,-9.767846,-0.001312,0.001379,-0.000547,0.790536,0.657793,2.643840,778.91,15.00,highres
23.529575,11068763051,-0.061086,0.278598,-9.774903,0.000458,0.001526,0.000537,0.790536,0.657793,2.643840,778.91,15.00,highres
23.539290,11068775151,-0.053904,0.275007,-9.762934,-0.001104,0.001902,0.001035,0.790536,0.657793,2.643840,778.91,15.00,highres
23.551714,11068779722,-0.053223,0.277972,-9.766063,-0.000947,0.001404,-0.000672,0.790536,0.657793,2.643840,778.91,15.00,highres
23.555219,11068796988,-0.068761,0.286407,-9.768214,-0.000408,0.001691,0.000868,0.790536,0.657793,2.643840,778.91,15.00,highres
23.570881,11068804519,-0.059374,0.271471,-9.767206,0.000341,0.000275,-0.000844,0.790536,0.657793,2.643840,778.91,15.00,highres
23.574814,11068818396,-0.058234,0.284048,-9.771974,-0.002154,0.003053,0.001454,0.790536,0.657793,2.643840,778.91,15.00,highres
23.588222,11068825632,-0.060604,0.274763,-9.771076,0.000887,-0.000308,0.000293,0.790536,0.657793,2.643840,778.91,15.00,highres
23.600828,11068835703,-0.052707,0.271416,-9.777298,-0.001985,0.000915,0.000843,0.790536,0.657793,2.643840,778.91,15.00,highres
23.604767,11068844706,-0.051510,0.272613,-9.761736,0.001375,-0.000612,-0.000990,0.790536,0.657793,2.643840,778.91,15.00,highres
23.614838,11068849700,-0.054372,0.266106,-9.769388,0.001202,0.000410,0.001321,0.790536,0.657793,2.643840,778.91,15.00,highres
23.630723,11068865013,-0.051418,0.281307,-9.769760,0.001036,0.000338,0.000232,0.803453,0.658406,2.633787,778.91,15.00,highres
