t_wall_s,t_boot_us,ax,ay,az,gx,gy,gz,mx,my,mz,abs_pressure,temperature,source
2.253812,66454671975,4.336364,-1.069863,-8.736568,-0.035711,0.012901,0.001282,0.127316,0.990132,2.754698,782.06,41.00,highres
2.253812,66454692082,4.368601,-1.141132,-8.721428,-0.029547,0.035011,0.004879,0.120769,0.977432,2.769118,782.07,41.00,highres
2.253812,66454711990,4.349871,-1.111619,-8.574516,-0.003529,0.046625,-0.015669,0.130412,0.986804,2.781131,782.07,41.00,highres
2.253812,66454727303,4.355733,-0.985417,-8.505756,-0.003820,0.031048,-0.016906,0.130412,0.986804,2.781131,782.07,41.00,highres
2.253812,66454758062,4.255781,-0.916594,-8.483019,-0.001834,-0.024388,0.026770,0.130412,0.986804,2.781131,782.07,41.00,highres
2.253812,66454769892,4.256853,-1.018462,-8.531280,-0.021788,-0.043403,0.043996,0.130412,0.986804,2.781131,782.07,41.00,highres
2.253812,66454795154,4.372157,-1.240683,-8.745007,0.015521,-0.038547,0.013496,0.130412,0.986804,2.781131,782.07,41.00,highres
2.253812,66454812157,4.426359,-1.164974,-8.838536,0.019045,-0.018347,-0.008368,0.130412,0.986804,2.781131,782.07,41.00,highres
2.254661,66454833709,4.452386,-1.074409,-8.873387,-0.010065,-0.005795,-0.003285,0.125260,0.977210,2.767944,782.07,41.00,highres
2.254661,66454852373,4.382429,-1.199921,-8.827083,-0.024863,-0.004870,0.002213,0.115486,0.970135,2.768799,782.06,41.00,highres
2.254661,66454867628,4.330761,-1.259039,-8.874336,-0.021890,0.007047,-0.019038,0.115486,0.970135,2.768799,782.06,41.00,highres
2.254661,66454892681,4.210629,-0.977343,-8.710749,-0.049093,0.036035,-0.036829,0.115486,0.970135,2.768799,782.06,41.00,highres
2.254661,66454910269,4.240099,-0.922271,-8.598494,-0.008401,0.048763,-0.003772,0.115486,0.970135,2.768799,782.06,41.00,highres
2.254661,66454932973,4.385742,-1.066510,-8.578053,-0.012314,0.044681,0.018589,0.115486,0.970135,2.768799,782.06,41.00,highres
2.254661,66454950585,4.398206,-1.088932,-8.557672,-0.032834,0.017432,0.006555,0.115486,0.970135,2.768799,782.06,41.00,highres
2.254661,66454975543,4.331904,-0.959723,-8.570092,-0.021596,-0.008842,0.005207,0.131815,0.975761,2.766355,782.06,41.00,highres
2.254859,66454990390,4.308660,-0.959218,-8.593225,-0.002314,-0.000149,0.021351,0.116520,0.960565,2.773035,782.06,41.00,highres
2.254859,66455013132,4.317126,-1.051547,-8.563517,0.001863,0.004660,0.034385,0.116520,0.960565,2.773035,782.06,41.00,highres
2.254859,66455033217,4.463269,-1.192447,-8.665351,0.010230,-0.013545,0.028909,0.116520,0.960565,2.773035,782.06,41.00,highres
2.254859,66455047993,4.553246,-1.265526,-8.797836,-0.015426,-0.034620,0.003558,0.116520,0.960565,2.773035,782.06,41.00,highres
2.254859,66455075422,4.403812,-1.113277,-8.875226,-0.033790,-0.031424,-0.042805,0.116520,0.960565,2.773035,782.06,41.00,highres
2.254859,66455097807,4.244245,-0.911976,-8.764629,-0.009218,0.006350,-0.023765,0.116520,0.960565,2.773035,782.06,41.00,highres
2.254859,66455112867,4.200458,-0.957611,-8.694001,0.001974,0.034577,-0.000065,0.126967,0.974148,2.777276,782.06,41.00,highres
2.254859,66455133149,4.314190,-1.100780,-8.720772,-0.007188,0.040389,0.011559,0.117894,0.971000,2.774782,782.06,41.00,highres
2.254859,66455155529,4.432290,-1.118396,-8.692495,-0.047079,0.018644,-0.014437,0.117894,0.971000,2.774782,782.06,41.00,highres
2.255034,66455173645,4.432990,-1.008492,-8.675982,-0.037256,0.007001,-0.027433,0.117894,0.971000,2.774782,782.06,41.00,highres
2.255034,66455196030,4.335383,-0.927958,-8.629052,-0.008286,0.018217,-0.007260,0.117894,0.971000,2.774782,782.06,41.00,highres
2.255034,66455218585,4.346499,-1.155911,-8.636321,-0.008164,0.021772,0.008908,0.117894,0.971000,2.774782,782.06,41.00,highres
2.255034,66455231181,4.361302,-1.205935,-8.656950,-0.028946,0.019733,-0.011118,0.117894,0.971000,2.774782,782.06,41.00,highres
2.255034,66455253507,4.384981,-0.918028,-8.578259,-0.030993,0.008120,-0.037365,0.121291,0.978926,2.773417,782.05,41.00,highres
2.255034,66455273784,4.374843,-0.778879,-8.584694,-0.018795,-0.017812,-0.000433,0.123670,0.979479,2.760523,782.05,41.00,highres
2.255034,66455294392,4.389251,-1.020131,-8.696086,-0.006263,-0.016294,0.010888,0.123670,0.979479,2.760523,782.05,41.00,highres
2.255034,66455315575,4.318238,-1.059941,-8.657703,-0.019630,-0.005136,-0.013811,0.123670,0.979479,2.760523,782.05,41.00,highres
2.255267,66455327944,4.288464,-0.957181,-8.595687,-0.009154,0.001994,-0.015515,0.123670,0.979479,2.760523,782.06,41.00,highres
2.255267,66455355512,4.485747,-1.092075,-8.816232,-0.021486,-0.000851,0.008086,0.123670,0.979479,2.760523,782.06,41.00,highres
2.255267,66455374106,4.476905,-1.070161,-8.690768,-0.042171,-0.000786,-0.030547,0.123670,0.979479,2.760523,782.06,41.00,highres
2.255267,66455391648,4.417638,-0.882243,-8.669808,-0.013676,-0.005410,-0.039785,0.127066,0.976466,2.772961,782.06,41.00,highres
2.255267,66455414482,4.268349,-1.014146,-8.748755,0.002896,0.004570,-0.014364,0.120557,0.975822,2.784858,782.05,41.00,highres
2.255267,66455432756,4.329005,-1.081029,-8.816944,-0.008340,0.030248,-0.020688,0.120557,0.975822,2.784858,782.05,41.00,highres
2.255267,66455450938,4.392653,-0.949082,-8.788468,-0.060457,0.030963,-0.030662,0.120557,0.975822,2.784858,782.05,41.00,highres
2.255267,66455475950,4.385080,-0.680262,-8.510139,-0.024824,0.047632,-0.023403,0.120557,0.975822,2.784858,782.05,41.00,highres
2.255267,66455493407,4.302923,-0.653408,-8.356410,0.018762,0.042874,0.005421,0.120557,0.975822,2.784858,782.06,41.00,highres
2.255378,66455514240,4.326269,-0.901845,-8.352997,0.002488,-0.019210,0.033883,0.120557,0.975822,2.784858,782.06,41.00,highres
2.255378,66455533566,4.413191,-1.125471,-8.557229,-0.010547,-0.076093,0.016971,0.124227,0.977395,2.782006,782.06,41.00,highres
2.255378,66455551176,4.403296,-1.027987,-8.754306,0.002713,-0.067955,-0.024880,0.130920,0.982911,2.775311,782.06,41.00,highres
2.255378,66455574292,4.364113,-0.755583,-8.735590,-0.007193,-0.035518,-0.001728,0.130920,0.982911,2.775311,782.05,41.00,highres
2.255378,66455596370,4.328391,-0.942319,-8.772884,0.058731,-0.010071,0.028927,0.130920,0.982911,2.775311,782.05,41.00,highres
2.255378,66455614324,4.298888,-1.065465,-8.868984,0.034957,0.005105,0.021790,0.130920,0.982911,2.775311,782.05,41.00,highres
2.255378,66455623901,4.340345,-1.130347,-8.877147,0.008847,-0.000886,0.020430,0.130920,0.982911,2.775311,782.05,41.00,highres
2.255378,66455643777,4.429878,-1.160787,-8.967294,-0.024297,-0.006807,-0.006921,0.130920,0.982911,2.775311,782.05,41.00,highres
2.255378,66455669093,4.411249,-0.949731,-9.010142,-0.017741,0.057093,-0.024785,0.122000,0.973390,2.772416,782.05,41.00,highres
2.255608,66455688495,4.388054,-0.965421,-8.709783,-0.051481,0.114144,-0.005394,0.123430,0.974621,2.765165,782.05,41.00,highres
2.255608,66455707982,4.446709,-0.986614,-8.454283,0.003803,0.133081,0.008962,0.123430,0.974621,2.765165,782.05,41.00,highres
2.255608,66455721394,4.524508,-1.044072,-8.306202,-0.013607,0.101011,0.014154,0.123430,0.974621,2.765165,782.05,41.00,highres
2.255608,66455752160,4.436326,-0.849006,-8.124123,0.000487,-0.016452,-0.013509,0.123430,0.974621,2.765165,782.05,41.00,highres
2.255608,66455771504,4.416142,-0.780181,-8.280912,0.010760,-0.078088,0.008891,0.123430,0.974621,2.765165,782.05,41.00,highres
2.255608,66455789090,4.412479,-0.889546,-8.467509,0.019379,-0.091412,0.029731,0.123430,0.974621,2.765165,782.05,41.00,highres
2.255608,66455809318,4.453212,-0.910400,-8.479339,-0.029406,-0.099583,0.023788,0.122551,0.976936,2.767668,782.05,41.00,highres
2.255608,66455831309,4.451919,-0.862964,-8.405773,0.010074,-0.156311,0.023390,0.117361,0.975812,2.770276,782.05,41.00,highres
2.255845,66455853922,4.295434,-1.002676,-8.646983,0.028341,-0.208185,0.001711,0.117361,0.975812,2.770276,782.05,41.00,highres
2.255845,66455874292,4.134188,-0.903282,-8.820101,0.001947,-0.205874,0.000329,0.117361,0.975812,2.770276,782.05,41.00,highres
2.255845,66455894193,4.132117,-0.847658,-8.879236,0.023004,-0.167701,0.026846,0.117361,0.975812,2.770276,782.05,41.00,highres
2.255845,66455913814,4.247852,-1.032727,-8.925647,0.074475,-0.093022,0.054610,0.117361,0.975812,2.770276,782.05,41.00,highres
2.255845,66455935340,4.379913,-1.179646,-8.843735,0.050607,-0.076680,0.036029,0.117361,0.975812,2.770276,782.05,41.00,highres
2.255845,66455952750,4.433890,-1.217644,-8.773371,-0.016319,-0.115690,0.016386,0.122217,0.970044,2.775173,782.05,41.00,highres
2.255845,66455972333,4.395002,-1.135178,-8.754457,0.002267,-0.147868,-0.035016,0.121677,0.967862,2.788343,782.05,41.00,highres
2.255845,66455994134,4.195329,-0.895638,-8.813397,-0.021243,-0.135394,-0.045405,0.121677,0.967862,2.788343,782.05,41.00,highres
2.255845,66456014604,4.408835,-2.037314,-9.871147,-0.182117,-0.082268,-0.056998,0.121677,0.967862,2.788343,782.05,41.00,highres
2.256055,66456031840,4.413155,-1.399095,-8.656204,-0.019217,-0.046918,-0.158300,0.121677,0.967862,2.788343,782.05,41.00,highres
2.256055,66456054799,3.979809,-0.958404,-9.480247,-0.113178,-0.016580,-0.179796,0.121677,0.967862,2.788343,782.06,41.00,highres
2.256055,66456072166,3.972096,-0.552053,-8.835513,-0.070457,0.030535,-0.137035,0.121677,0.967862,2.788343,782.06,41.00,highres
2.256055,66456089551,3.708926,-0.249665,-8.413509,0.009419,0.010497,-0.078153,0.114891,0.966292,2.787230,782.06,41.00,highres
2.256055,66456113905,3.671100,-0.259589,-8.207727,-0.032634,-0.068792,0.073332,0.105768,0.959798,2.786081,782.06,41.00,highres
2.256055,66456134171,3.818282,-0.622557,-8.163884,0.018724,-0.102881,0.100780,0.105768,0.959798,2.786081,782.06,41.00,highres
2.256055,66456151038,3.932491,-0.641148,-8.463320,0.095623,-0.120046,0.110328,0.105768,0.959798,2.786081,782.06,41.00,highres
2.256055,66456174115,4.017431,-0.668661,-8.937837,0.061698,-0.134717,0.143724,0.105768,0.959798,2.786081,782.06,41.00,highres
2.256250,66456197175,4.168513,-0.908295,-9.432563,0.057171,-0.083340,0.163293,0.105768,0.959798,2.786081,782.06,41.00,highres
2.256250,66456211481,4.476144,-1.751951,-9.402824,0.079239,-0.031127,0.091876,0.105768,0.959798,2.786081,782.06,41.00,highres
2.256250,66456228928,4.390472,-1.814874,-9.392320,0.021213,-0.015053,-0.039603,0.105768,0.959798,2.786081,782.06,41.00,highres
2.256250,66456257419,4.208289,-1.066405,-8.891713,-0.068037,-0.022751,-0.076927,0.118374,0.961894,2.804650,782.06,41.00,highres
2.256250,66456274166,4.053955,-0.772028,-8.767623,0.005121,0.006563,-0.019678,0.118374,0.961894,2.804650,782.06,41.00,highres
2.256250,66456295283,3.998409,-1.036730,-8.807899,-0.038459,0.045195,0.016011,0.118374,0.961894,2.804650,782.06,41.00,highres
2.256250,66456317841,3.999578,-1.083092,-8.731430,-0.082970,0.052572,-0.013317,0.118374,0.961894,2.804650,782.06,41.00,highres
2.256250,66456329224,4.009407,-1.026056,-8.713373,-0.069453,0.024068,-0.020470,0.118374,0.961894,2.804650,782.06,41.00,highres
2.256381,66456351633,3.943948,-0.717277,-8.885221,-0.028983,-0.040428,-0.037938,0.118374,0.961894,2.804650,782.06,41.00,highres
2.256381,66456372114,3.949523,-0.682294,-8.932455,0.013844,-0.048166,-0.023612,0.112105,0.964023,2.791739,782.05,41.00,highres
2.256381,66456394314,4.047102,-0.979966,-8.913514,0.031865,-0.019105,-0.023146,0.116704,0.960256,2.800101,782.05,41.00,highres
2.256381,66456409828,4.141461,-1.106318,-8.886418,-0.031933,0.006632,-0.051819,0.116704,0.960256,2.800101,782.05,41.00,highres
2.256381,66456434689,4.111049,-0.930828,-8.659926,-0.044473,-0.009032,-0.064825,0.116704,0.960256,2.800101,782.05,41.00,highres
2.256381,66456455047,4.015771,-0.655031,-8.833748,-0.017295,-0.013646,-0.024326,0.116704,0.960256,2.800101,782.06,41.00,highres
2.256381,66456472160,4.078194,-0.925777,-8.630043,0.024470,-0.016779,0.003656,0.116704,0.960256,2.800101,782.06,41.00,highres
2.256381,66456495342,3.864608,-1.000296,-8.900976,0.029895,-0.047842,-0.024957,0.116704,0.960256,2.800101,782.06,41.00,highres
2.256381,66456513017,3.791630,-0.675825,-8.952493,-0.001616,-0.039103,-0.021834,0.116704,0.960256,2.800101,782.06,41.00,highres
2.256612,66456532723,3.910200,-0.658035,-8.980881,0.015193,-0.005812,0.011886,0.117881,0.955708,2.785367,782.06,41.00,highres
2.256612,66456552137,4.025560,-0.936905,-9.017460,-0.002146,0.032847,0.027503,0.117881,0.955708,2.785367,782.06,41.00,highres
2.256612,66456572141,4.162252,-1.197121,-8.738629,0.004956,0.027701,0.005614,0.117881,0.955708,2.785367,782.06,41.00,highres
2.256612,66456598001,4.083693,-0.815037,-8.649578,0.017320,-0.040865,-0.008174,0.117881,0.955708,2.785367,782.06,41.00,highres
2.256612,66456612692,4.059071,-0.880173,-8.786313,-0.003005,-0.062462,0.012028,0.117881,0.955708,2.785367,782.05,41.00,highres
2.256612,66456632781,4.055727,-0.916511,-8.967154,0.009516,-0.013837,0.003603,0.117881,0.955708,2.785367,782.05,41.00,highres
2.256612,66456650163,4.024112,-0.887434,-9.090832,0.004363,0.036767,-0.000110,0.117881,0.955708,2.785367,782.05,41.00,highres
2.256612,66456672427,4.014248,-0.924204,-8.979229,-0.043084,0.018875,0.005179,0.101000,0.956231,2.794766,782.05,41.00,highres
2.256840,66456692264,4.030490,-1.036698,-8.927310,-0.041556,-0.006056,-0.017124,0.101000,0.956231,2.794766,782.04,41.00,highres
2.256840,66456715254,4.033346,-0.914965,-8.900142,-0.018653,0.027714,-0.025264,0.101000,0.956231,2.794766,782.04,41.00,highres
2.256840,66456734661,3.993606,-0.820865,-8.856025,-0.030855,0.042059,-0.006404,0.101000,0.956231,2.794766,782.04,41.00,highres
2.256840,66456754707,4.015978,-0.840978,-8.597714,-0.026095,0.012715,0.022811,0.101000,0.956231,2.794766,782.04,41.00,highres
2.256840,66456775305,3.925394,-0.927434,-8.959738,-0.035078,0.007115,0.034157,0.101000,0.956231,2.794766,782.05,41.00,highres
2.256840,66456794812,3.865635,-0.864084,-8.967064,0.001714,0.029627,-0.005153,0.109827,0.958262,2.800635,782.05,41.00,highres
2.256840,66456812271,4.004325,-0.757930,-8.863245,-0.004638,0.032915,-0.010982,0.116901,0.965187,2.789090,782.05,41.00,highres
2.256840,66456833081,4.211740,-0.910067,-8.849282,-0.003092,0.031090,0.003253,0.116901,0.965187,2.789090,782.05,41.00,highres
2.256840,66456852759,4.223635,-1.067028,-9.082664,-0.054498,0.037127,0.003078,0.116901,0.965187,2.789090,782.05,41.00,highres
2.257070,66456874860,4.059249,-0.893410,-8.830427,-0.067419,0.053847,-0.013993,0.116901,0.965187,2.789090,782.05,41.00,highres
2.257070,66456892778,3.980495,-0.677190,-8.657489,-0.025478,0.056977,-0.003852,0.116901,0.965187,2.789090,782.05,41.00,highres
2.257104,66456906630,3.961573,-0.646285,-8.566475,-0.034620,0.046438,0.019834,0.116901,0.965187,2.789090,782.05,41.00,highres
2.257104,66456928219,4.007392,-0.846870,-8.627026,-0.018814,0.006350,0.048570,0.109129,0.960414,2.802190,782.05,41.00,highres
2.298084,66456942330,4.072356,-0.871331,-8.715381,-0.013743,-0.024372,0.046098,0.106708,0.946881,2.802964,782.05,41.00,highres
2.323406,66456962611,4.088791,-0.796283,-8.827763,-0.003542,-0.044657,0.036964,0.106708,0.946881,2.802964,782.05,41.00,highres
2.348183,66456989619,4.092905,-0.859461,-9.138135,0.020497,-0.005759,0.035001,0.106708,0.946881,2.802964,782.05,41.00,highres
2.364327,66457007795,4.153432,-1.040042,-9.060615,0.008265,0.038938,0.027111,0.106708,0.946881,2.802964,782.05,41.00,highres
2.380726,66457027643,4.101546,-0.911519,-8.885797,-0.017540,0.051372,0.005309,0.106708,0.946881,2.802964,782.05,41.00,highres
2.405728,66457047362,4.078115,-0.823712,-8.815489,-0.046721,0.037889,0.014727,0.106708,0.946881,2.802964,782.05,41.00,highres
2.415308,66457067110,4.165821,-1.056377,-9.109411,-0.040500,0.039336,0.028412,0.115560,0.958833,2.800741,782.05,41.00,highres
2.446000,66457087523,4.095961,-0.896791,-9.164084,-0.074341,0.095523,-0.012519,0.108862,0.959981,2.785537,782.05,41.00,highres
2.455680,66457109925,4.052879,-0.667168,-8.764215,-0.057438,0.126436,-0.028937,0.108862,0.959981,2.785537,782.05,41.00,highres
2.479196,66457128210,4.067856,-0.677663,-8.624710,-0.040587,0.093805,-0.009714,0.108862,0.959981,2.785537,782.05,41.00,highres
2.497632,66457146903,4.183273,-0.816506,-8.616547,-0.066767,0.072018,0.011308,0.108862,0.959981,2.785537,782.05,41.00,highres
2.515797,66457167779,4.225723,-0.822160,-8.599585,-0.049357,0.065298,0.003977,0.108862,0.959981,2.785537,782.06,41.00,highres
2.547120,66457187618,4.218204,-0.753031,-8.545565,0.002610,0.048164,0.005082,0.108862,0.959981,2.785537,782.06,41.00,highres
2.553497,66457209936,4.147965,-0.565213,-8.389323,0.004653,-0.003193,0.016896,0.110416,0.961298,2.794215,782.06,41.00,highres
2.582963,66457228027,4.165040,-0.648813,-8.504681,0.006231,-0.035495,0.043988,0.110412,0.959190,2.792408,782.06,41.00,highres
2.598218,66457243553,4.085569,-0.875480,-8.695548,0.055406,-0.045879,0.055901,0.110412,0.959190,2.792408,782.06,41.00,highres
2.624624,66457265954,4.145052,-1.082378,-9.032460,0.058355,-0.043701,0.043064,0.110412,0.959190,2.792408,782.06,41.00,highres
2.646354,66457280445,4.116998,-0.902776,-9.096216,-0.004840,-0.041660,0.019777,0.110412,0.959190,2.792408,782.06,41.00,highres
2.661746,66457307934,4.188126,-0.787491,-8.851253,-0.015252,-0.012659,0.023923,0.110412,0.959190,2.792408,782.06,41.00,highres
2.680115,66457330334,4.256886,-0.859124,-8.839900,0.035139,-0.003284,0.011862,0.110412,0.959190,2.792408,782.06,41.00,highres
2.698539,66457348263,4.271011,-0.946305,-9.021241,0.017227,0.017040,0.004588,0.101476,0.964201,2.798174,782.06,41.00,highres
2.728069,66457362860,4.216876,-0.951831,-8.942719,-0.027819,0.042843,-0.004456,0.101476,0.964201,2.798174,782.06,41.00,highres
2.734391,66457382744,4.182522,-0.858234,-8.761011,-0.075014,0.035671,-0.010989,0.101476,0.964201,2.798174,782.06,41.00,highres
2.766124,66457403449,4.184591,-0.819045,-8.931638,-0.073181,0.013985,-0.011600,0.101476,0.964201,2.798174,782.05,41.00,highres
2.778948,66457420449,4.056831,-0.802904,-9.022819,-0.055538,0.041406,-0.026697,0.101476,0.964201,2.798174,782.05,41.00,highres
2.800022,66457443007,4.122873,-0.711961,-8.831350,-0.065545,0.106532,-0.024123,0.101476,0.964201,2.798174,782.05,41.00,highres
2.814615,66457463035,4.145822,-0.753959,-8.572609,-0.075624,0.102866,-0.011600,0.101476,0.964201,2.798174,782.05,41.00,highres
2.847615,66457483510,4.440723,-0.900426,-8.564411,-0.019829,0.079737,0.018943,0.122576,0.955891,2.792512,782.05,41.00,highres
2.864134,66457493054,4.405271,-0.739570,-8.476870,-0.034513,0.053668,0.007399,0.122576,0.955891,2.792512,782.05,41.00,highres
2.880656,66457515979,4.330595,-0.540114,-8.535683,-0.026023,-0.012838,-0.029948,0.122576,0.955891,2.792512,782.05,41.00,highres
2.902136,66457531012,4.176041,-0.589417,-8.522516,0.006827,-0.036694,-0.011690,0.122576,0.955891,2.792512,782.05,41.00,highres
2.914281,66457573341,4.080715,-0.795114,-8.512375,0.012528,-0.076690,0.032456,0.122576,0.955891,2.792512,782.05,41.00,highres
2.933890,66457590855,4.100846,-0.816399,-8.619879,-0.010418,-0.107543,0.018478,0.122576,0.955891,2.792512,782.05,41.00,highres
2.953945,66457616395,4.164097,-0.589584,-8.887092,0.037501,-0.092365,0.029741,0.122576,0.955891,2.792512,782.05,41.00,highres
2.980024,66457635288,4.258765,-0.784292,-9.030192,0.051964,-0.058246,0.045054,0.110329,0.958453,2.786813,782.05,41.00,highres
2.998904,66457653938,4.229626,-0.836879,-9.000969,0.022400,-0.040571,0.032821,0.110329,0.958453,2.786813,782.06,40.70,highres
3.015780,66457668449,4.145052,-0.796283,-8.961832,0.003162,-0.029058,0.020991,0.110329,0.958453,2.786813,782.06,40.70,highres
3.048223,66457687642,4.201134,-0.857191,-8.909902,0.007133,-0.020201,0.021297,0.110329,0.958453,2.786813,782.06,40.70,highres
3.054345,66457707930,4.176270,-0.924640,-8.859075,0.005957,-0.013811,0.006920,0.110329,0.958453,2.786813,782.06,40.70,highres
3.079656,66457731188,4.041252,-0.836496,-8.871191,0.086535,0.012344,-0.018504,0.110329,0.958453,2.786813,782.05,40.70,highres
3.098346,66457753558,3.944027,-0.539658,-8.791399,0.206277,0.058973,-0.004408,0.119443,0.957158,2.794048,782.05,40.70,highres
3.114610,66457773892,4.185811,-0.829235,-8.819802,0.209190,0.047389,-0.000479,0.106781,0.950265,2.787133,782.05,40.70,highres
3.147677,66457794456,4.273191,-1.072517,-8.939530,-0.045080,0.040247,0.075637,0.106781,0.950265,2.787133,782.05,40.70,highres
3.154908,66457814008,4.231732,-1.112814,-8.954316,-0.078668,0.039123,0.049302,0.106781,0.950265,2.787133,782.06,40.70,highres
3.184154,66457836794,4.231244,-1.000921,-8.915406,-0.170263,-0.001692,-0.020913,0.106781,0.950265,2.787133,782.06,40.70,highres
3.198145,66457853339,4.272504,-0.800185,-8.938622,-0.114245,0.005881,-0.036125,0.106781,0.950265,2.787133,782.06,40.70,highres
3.213901,66457871237,4.208832,-0.817699,-9.047667,-0.119451,0.042113,-0.015203,0.106781,0.950265,2.787133,782.06,40.70,highres
3.246787,66457891245,4.431144,-1.005526,-9.221580,-0.191832,0.074062,0.006636,0.110304,0.963675,2.791678,782.05,40.70,highres
3.254671,66457910910,4.296403,-0.878231,-8.967904,-0.170181,0.125041,-0.020897,0.116142,0.952432,2.783957,782.05,40.70,highres
3.269218,66457933887,4.276410,-0.309708,-8.525491,0.034324,0.217154,-0.047249,0.116142,0.952432,2.783957,782.05,40.70,highres
3.269218,66457953818,4.368719,-0.366215,-8.264025,0.057590,0.167488,0.015700,0.116142,0.952432,2.783957,782.05,40.70,highres
3.316465,66457976544,4.276204,-0.752254,-7.972713,0.017220,0.088415,0.043593,0.116142,0.952432,2.783957,782.06,40.70,highres
3.348870,66457993934,4.142772,-0.985354,-7.921874,0.153120,-0.031000,0.019786,0.116142,0.952432,2.783957,782.06,40.70,highres
3.354578,66458014003,4.443872,-0.814855,-8.467494,0.272436,-0.116931,-0.012630,0.116142,0.952432,2.783957,782.06,40.70,highres
3.379757,66458032095,4.444701,-0.747910,-8.557022,0.265572,-0.132942,0.014696,0.110323,0.966943,2.785420,782.06,40.70,highres
3.397525,66458047444,4.227480,-0.734884,-8.388078,0.210245,-0.150010,0.051533,0.115604,0.969935,2.786312,782.06,40.70,highres
3.414422,66458068417,4.237163,-0.886676,-8.558289,0.072648,-0.274837,0.091288,0.115604,0.969935,2.786312,782.06,40.70,highres
3.446274,66458086966,4.138789,-0.710553,-8.975924,0.086825,-0.302917,0.060821,0.115604,0.969935,2.786312,782.06,40.70,highres
3.453641,66458109558,4.028512,-0.872887,-8.986631,0.094462,-0.311106,0.024924,0.115604,0.969935,2.786312,782.06,40.70,highres
3.479241,66458124099,3.891512,-1.395863,-9.656309,0.143291,-0.256053,-0.020730,0.115604,0.969935,2.786312,782.07,40.70,highres
3.499016,66458148922,3.726751,-1.357167,-8.879947,0.088370,0.091343,-0.219649,0.115604,0.969935,2.786312,782.07,40.70,highres
3.521415,66458174041,3.816256,-1.521913,-8.849780,0.259232,0.054125,-0.251695,0.109315,0.967988,2.785639,782.07,40.70,highres
3.547670,66458192036,4.016335,-1.441705,-9.438759,0.293258,-0.048586,-0.231226,0.124708,0.969027,2.771901,782.07,40.70,highres
3.562966,66458214547,4.390527,-1.058496,-9.637740,0.177956,0.090754,-0.193829,0.124708,0.969027,2.771901,782.07,40.70,highres
3.579436,66458235762,4.748210,-1.040257,-9.559715,-0.090465,0.287584,-0.148025,0.124708,0.969027,2.771901,782.07,40.70,highres
3.606814,66458253969,4.821425,-1.115856,-8.575697,-0.524520,0.279560,-0.124179,0.124708,0.969027,2.771901,782.07,40.70,highres
3.614921,66458274397,4.351903,-1.072960,-7.881555,-0.557093,0.014045,-0.108334,0.124708,0.969027,2.771901,782.07,40.70,highres
3.646246,66458295188,4.389549,-0.582425,-8.595691,-0.235532,-0.243303,-0.092379,0.124708,0.969027,2.771901,782.06,40.70,highres
3.654540,66458314335,4.174829,-0.154454,-8.835790,-0.152368,-0.281524,-0.049644,0.106994,0.958937,2.781782,782.06,40.70,highres
3.680555,66458334897,3.701728,-0.047657,-8.857610,-0.079331,-0.179380,0.057186,0.108197,0.974191,2.795764,782.06,40.70,highres
3.699349,66458353764,3.828348,-0.316869,-8.949605,-0.126687,-0.014979,0.184258,0.108197,0.974191,2.795764,782.06,40.70,highres
3.714996,66458366601,3.860155,-1.048860,-8.654191,-0.294896,0.063088,0.200549,0.108197,0.974191,2.795764,782.06,40.70,highres
3.746871,66458393077,3.911123,-1.622332,-8.032788,-0.644336,-0.051320,0.054909,0.108197,0.974191,2.795764,782.06,40.70,highres
3.754766,66458411114,4.041760,-1.210574,-8.204071,-0.416104,-0.153527,-0.069546,0.108197,0.974191,2.795764,782.06,40.70,highres
3.779080,66458433967,4.151374,0.215093,-9.104601,0.065949,-0.153664,-0.055906,0.108197,0.974191,2.795764,782.06,40.70,highres
3.798760,66458452488,3.732543,0.068897,-9.498485,0.028157,-0.064794,0.086471,0.108197,0.974191,2.795764,782.05,40.70,highres
3.814339,66458467420,3.804836,-1.038461,-9.638718,-0.141614,0.106552,0.086965,0.104014,0.954795,2.795770,782.05,40.70,highres
3.847266,66458485628,3.750026,-1.552818,-9.322145,-0.568913,0.175580,-0.014742,0.104014,0.954795,2.795770,782.05,40.70,highres
3.856189,66458513866,3.441073,-1.375884,-9.721956,-0.155147,0.014203,-0.243310,0.104014,0.954795,2.795770,782.05,40.70,highres
3.880959,66458529454,3.650460,-0.951062,-9.994054,0.230490,0.070637,-0.327706,0.104014,0.954795,2.795770,782.05,40.70,highres
3.898875,66458554240,4.487088,0.186210,-9.482291,0.462305,0.226404,-0.267181,0.104014,0.954795,2.795770,782.05,40.70,highres
3.915626,66458575082,4.958720,0.344638,-8.757994,-0.065097,0.298501,-0.130327,0.104014,0.954795,2.795770,782.05,40.70,highres
3.946933,66458594578,5.331283,0.701577,-8.617352,-0.319342,0.472184,-0.023066,0.099837,0.961296,2.807432,782.05,40.70,highres
3.954510,66458614861,5.445950,1.244342,-8.080641,0.003463,0.533038,0.205433,0.087282,0.958575,2.800483,782.05,40.70,highres
3.985321,66458631489,5.178944,0.803280,-7.613836,0.213450,0.264874,0.450328,0.087282,0.958575,2.800483,782.05,40.70,highres
3.998113,66458651520,5.011638,-0.109197,-7.727111,-0.406227,-0.121727,0.513841,0.087282,0.958575,2.800483,782.05,40.70,highres
4.025465,66458671580,4.244575,-0.912702,-8.075188,-0.697940,-0.223534,0.415413,0.087282,0.958575,2.800483,782.05,40.70,highres
4.046849,66458697105,4.128560,-1.545331,-8.555189,-0.889812,-0.211639,0.190845,0.087282,0.958575,2.800483,782.06,40.70,highres
4.055215,66458708001,4.356930,-1.212856,-8.314228,-0.942658,-0.192563,0.084015,0.087282,0.958575,2.800483,782.06,40.70,highres
4.080779,66458732398,2.943099,-0.586679,-8.725075,-0.593846,-0.189275,-0.144738,0.087282,0.958575,2.800483,782.06,40.70,highres
4.098473,66458753130,2.555371,-0.711292,-9.569933,-0.469354,-0.095005,-0.235354,0.089363,0.968291,2.798888,782.06,40.70,highres
4.114401,66458771479,3.981680,0.509342,-9.673440,-0.551418,0.142782,-0.299791,0.089363,0.968291,2.798888,782.06,40.70,highres
4.148246,66458797086,5.003697,2.533798,-9.052711,0.056019,0.290568,-0.030923,0.089363,0.968291,2.798888,782.06,40.70,highres
4.154363,66458814467,4.675112,1.987538,-8.358124,0.154479,0.248552,0.215991,0.089363,0.968291,2.798888,782.06,40.70,highres
4.180610,66458832024,4.595269,0.295932,-8.504071,0.536125,0.169782,0.241367,0.089363,0.968291,2.798888,782.06,40.70,highres
4.197740,66458857099,5.210152,-0.324851,-8.383590,0.411086,-0.033649,0.110937,0.089363,0.968291,2.798888,782.06,40.70,highres
4.215980,66458869768,5.182911,-0.646511,-7.923001,0.313969,-0.171123,0.058763,0.103049,0.978041,2.808847,782.06,40.70,highres
4.234949,66458889844,4.085859,-1.214206,-8.276002,0.403015,-0.452870,-0.107476,0.116145,0.977795,2.799272,782.06,40.70,highres
4.253316,66458909806,4.219005,-0.236702,-8.456251,0.252032,-0.544106,-0.231706,0.116145,0.977795,2.799272,782.06,40.70,highres
4.273178,66458935388,4.329421,0.753159,-8.027914,0.527604,-0.484715,-0.168827,0.116145,0.977795,2.799272,782.06,40.70,highres
4.273178,66458953104,3.648169,0.879955,-8.485292,0.554002,-0.500168,-0.095328,0.116145,0.977795,2.799272,782.06,40.70,highres
4.315637,66458977185,3.360932,-0.128896,-8.776669,0.120089,-0.442605,0.077599,0.116145,0.977795,2.799272,782.06,40.70,highres
4.346793,66458994645,3.591100,-1.217029,-8.671108,-0.049423,-0.409530,0.079761,0.116145,0.977795,2.799272,782.06,40.70,highres
4.363120,66459012617,3.793664,-1.353782,-8.457438,0.004646,-0.361956,-0.032663,0.116145,0.977795,2.799272,782.06,40.70,highres
4.380589,66459032923,3.948843,-1.294158,-9.017166,0.077262,-0.323102,-0.217776,0.090346,0.984175,2.810479,782.06,40.70,highres
4.403754,66459054611,3.463241,-0.391792,-9.973900,-0.207704,-0.291710,-0.376279,0.090346,0.984175,2.810479,782.06,40.70,highres
4.413956,66459071826,3.243166,0.325002,-9.339841,-0.556089,-0.200905,-0.365040,0.090346,0.984175,2.810479,782.06,40.70,highres
4.443735,66459092772,3.323877,0.892754,-8.497376,-0.419694,-0.196101,-0.226792,0.090346,0.984175,2.810479,782.05,40.70,highres
4.456765,66459109906,3.581456,0.549209,-9.086428,-0.042167,-0.157528,-0.064386,0.090346,0.984175,2.810479,782.05,40.70,highres
4.482115,66459128073,3.282012,-0.000867,-11.218475,-0.088752,-0.107385,-0.025209,0.090346,0.984175,2.810479,782.05,40.70,highres
4.504258,66459152726,3.320775,0.214173,-11.575952,-0.369109,0.118610,-0.119007,0.092774,0.973264,2.820674,782.05,40.70,highres
4.520806,66459175239,3.376464,0.351372,-9.195651,-0.138450,0.496852,-0.135998,0.092566,0.964782,2.841242,782.05,40.70,highres
4.546879,66459195094,3.723394,0.294267,-7.791654,0.717015,0.611711,-0.113868,0.092566,0.964782,2.841242,782.05,40.70,highres
4.554834,66459217368,4.186537,0.358222,-9.405234,0.885101,0.418733,-0.027792,0.092566,0.964782,2.841242,782.05,40.70,highres
4.579579,66459234673,4.084358,-0.243476,-9.540919,0.037691,0.258372,0.038970,0.092566,0.964782,2.841242,782.05,40.70,highres
4.598098,66459252085,3.542667,-1.110739,-7.802747,-0.419881,0.103555,-0.033549,0.092566,0.964782,2.841242,782.05,40.70,highres
4.614415,66459272258,3.987201,-0.437951,-7.583164,-0.405342,0.007022,-0.137011,0.092566,0.964782,2.841242,782.05,40.70,highres
4.647495,66459292312,3.685320,0.460530,-8.362721,0.025204,-0.173287,-0.158621,0.091840,0.976072,2.817512,782.05,40.70,highres
4.654340,66459315399,3.541758,1.087385,-9.057590,0.019451,-0.183037,-0.011923,0.086487,0.973003,2.791604,782.05,40.70,highres
4.679000,66459332202,3.787974,0.703524,-8.975586,0.121577,-0.109421,0.149892,0.086487,0.973003,2.791604,782.06,40.70,highres
4.697666,66459347544,3.716865,-0.269508,-9.793489,0.076666,-0.109058,0.223518,0.086487,0.973003,2.791604,782.06,40.70,highres
4.715329,66459373206,4.046894,-0.823815,-10.045162,-0.329435,0.022749,0.146089,0.086487,0.973003,2.791604,782.06,40.70,highres
4.745897,66459389832,4.006195,-0.464700,-9.878772,-0.304272,0.185801,0.020288,0.086487,0.973003,2.791604,782.06,40.70,highres
4.754376,66459412401,3.761997,0.243953,-8.900783,-0.176870,0.414637,-0.005042,0.086487,0.973003,2.791604,782.06,40.70,highres
4.780495,66459432913,3.964392,0.076926,-7.837492,0.099054,0.442556,0.023346,0.086353,0.977860,2.816470,782.06,40.70,highres
4.797973,66459447664,4.243821,-0.380842,-7.707732,0.167470,0.324965,-0.039264,0.073621,1.015065,2.817816,782.06,40.70,highres
4.816175,66459469615,3.997815,-0.020595,-8.213676,-0.218758,-0.031278,-0.083913,0.073621,1.015065,2.817816,782.06,40.70,highres
4.847388,66459492462,3.946378,0.564341,-8.679125,-0.215843,-0.240005,-0.043774,0.073621,1.015065,2.817816,782.05,40.70,highres
4.859061,66459513406,3.724888,1.036400,-9.484943,-0.024037,-0.098059,0.031903,0.073621,1.015065,2.817816,782.05,40.70,highres
4.881904,66459530397,4.102312,0.836596,-9.298422,0.217097,0.065221,0.097346,0.073621,1.015065,2.817816,782.05,40.70,highres
4.903845,66459553199,4.247547,0.096553,-9.840778,0.306661,0.218100,0.125949,0.073621,1.015065,2.817816,782.05,40.70,highres
4.915127,66459570164,4.231415,-0.374423,-9.772392,0.187671,0.215286,0.101284,0.085858,0.980353,2.810886,782.05,40.70,highres
4.946655,66459596102,4.395469,-0.732621,-9.892091,0.065251,0.276200,-0.090442,0.096773,0.989398,2.804751,782.05,40.70,highres
4.955604,66459615638,4.245537,0.088977,-9.447779,0.259815,0.466560,-0.139936,0.096773,0.989398,2.804751,782.05,40.70,highres
4.982162,66459633455,4.135467,0.850859,-8.766712,0.387071,0.569634,-0.072328,0.096773,0.989398,2.804751,782.05,40.70,highres
4.997790,66459652445,4.639602,0.144684,-8.197200,0.312006,0.543076,0.032996,0.096773,0.989398,2.804751,782.05,40.70,highres
5.025621,66459676107,4.850338,-0.598046,-8.058055,0.177403,0.242523,-0.012395,0.096773,0.989398,2.804751,782.05,40.70,highres
5.048019,66459698466,4.486022,0.087670,-8.736117,0.187325,0.139748,-0.043019,0.096773,0.989398,2.804751,782.05,40.70,highres
5.054670,66459707682,4.747356,0.066722,-8.790211,0.340334,0.176853,-0.022844,0.101474,0.987628,2.779683,782.05,40.70,highres
5.079265,66459727004,5.116531,-0.694238,-9.113537,0.545277,0.251382,-0.025592,0.101928,1.004591,2.759760,782.05,40.70,highres
5.098739,66459747927,5.063722,-0.737791,-8.574807,0.362044,0.303391,-0.109731,0.101928,1.004591,2.759760,782.05,40.70,highres
5.114602,66459768008,4.759130,-0.444348,-8.327394,0.493549,0.317898,-0.193908,0.101928,1.004591,2.759760,782.05,40.70,highres
5.147994,66459783189,4.215135,0.262842,-8.385701,0.534079,0.291234,-0.193746,0.101928,1.004591,2.759760,782.05,40.70,highres
5.154142,66459803765,4.329389,0.186497,-8.050877,0.257371,0.188094,-0.083260,0.101928,1.004591,2.759760,782.04,40.70,highres
5.180909,66459833041,4.693292,-0.592782,-7.181819,-0.028069,-0.046462,0.062299,0.101928,1.004591,2.759760,782.04,40.70,highres
5.198028,66459847918,4.806886,-0.864239,-7.017488,0.076161,-0.168212,0.047069,0.107100,1.000500,2.735869,782.04,40.70,highres
5.214334,66459867486,4.720429,-0.995805,-7.369645,0.369280,-0.307543,-0.036963,0.116951,1.000991,2.731437,782.04,40.70,highres
5.236241,66459890316,3.989427,-1.181730,-9.048019,0.916003,-0.378243,-0.158841,0.116951,1.000991,2.731437,782.05,40.70,highres
5.266851,66459913206,4.057896,-0.066889,-10.794419,0.517563,-0.098863,-0.160184,0.116951,1.000991,2.731437,782.05,40.70,highres
5.274240,66459933788,4.320018,-0.477720,-9.139087,-0.128451,0.212843,-0.033499,0.116951,1.000991,2.731437,782.05,40.70,highres
5.274240,66459950771,4.172911,-0.471879,-8.031621,-0.278882,0.199094,-0.013146,0.116951,1.000991,2.731437,782.05,40.70,highres
5.315842,66459971208,4.369427,-0.803803,-7.659089,-0.273268,0.100421,0.025490,0.116951,1.000991,2.731437,782.06,40.70,highres
5.346611,66459994519,4.712455,-1.264583,-8.078823,0.372513,0.031651,-0.034811,0.108971,1.002692,2.715256,782.06,40.70,highres
5.356599,66460013131,4.978189,-1.005764,-9.992490,0.619826,0.072181,-0.061455,0.087432,0.999473,2.717491,782.06,40.70,highres
5.381302,66460033358,5.243707,-0.760990,-9.486723,0.271535,0.068136,-0.024500,0.087432,0.999473,2.717491,782.06,40.70,highres
5.398785,66460053560,5.008116,-0.461107,-9.149768,0.069415,0.097133,0.051073,0.087432,0.999473,2.717491,782.05,40.70,highres
5.414510,66460073061,4.939884,-0.224091,-8.851703,-0.131560,0.168607,0.124680,0.087432,0.999473,2.717491,782.05,40.70,highres
5.442328,66460090478,5.042291,-0.137642,-8.415936,0.055322,0.263103,0.123321,0.087432,0.999473,2.717491,782.05,40.70,highres
5.457566,66460113540,5.208053,0.099079,-8.346665,0.172652,0.401649,0.163169,0.087432,0.999473,2.717491,782.05,40.70,highres
5.481565,66460127776,5.139280,-0.350109,-7.395713,0.092238,0.323340,0.180457,0.109656,1.002450,2.697461,782.05,40.70,highres
5.497745,66460152993,4.360512,-0.901621,-6.489925,-0.451040,-0.051918,0.179662,0.124447,1.001847,2.695054,782.05,40.70,highres
5.517321,66460173255,4.234382,-0.643528,-6.035413,-0.703579,-0.473801,0.272231,0.124447,1.001847,2.695054,782.05,40.70,highres
5.547740,66460193001,5.501923,-0.150504,-7.510450,-0.590589,-0.761977,0.474274,0.124447,1.001847,2.695054,782.05,40.70,highres
5.554057,66460213158,4.825223,-1.046396,-7.924938,-0.520037,-0.871990,0.473766,0.124447,1.001847,2.695054,782.06,40.70,highres
5.580492,66460233119,3.445966,-2.178872,-7.197381,-0.512727,-1.034495,0.216321,0.124447,1.001847,2.695054,782.06,40.70,highres
5.599427,66460248415,4.015953,-1.546395,-8.222768,-0.350259,-1.220438,0.017469,0.124447,1.001847,2.695054,782.06,40.70,highres
5.614238,66460275398,3.050995,1.044876,-10.942265,-0.439579,-1.017937,0.096472,0.118008,1.012524,2.706172,782.06,40.70,highres
5.648097,66460294073,4.395871,0.203935,-11.278690,-0.359105,-0.473674,0.328342,0.117608,1.012163,2.734935,782.05,40.70,highres
5.655623,66460315903,4.322669,-0.968030,-10.363508,-0.332981,-0.035823,0.322368,0.117608,1.012163,2.734935,782.05,40.70,highres
5.680200,66460336464,3.918580,-1.410498,-9.304236,-0.052877,0.163158,0.250595,0.117608,1.012163,2.734935,782.05,40.70,highres
5.700223,66460351605,3.822137,-1.703461,-9.058699,0.344883,0.272410,0.155123,0.117608,1.012163,2.734935,782.05,40.70,highres
5.714642,66460371515,3.323770,-1.632699,-8.640932,0.516873,0.280091,0.037324,0.117608,1.012163,2.734935,782.04,40.70,highres
5.749122,66460393941,2.450943,-1.181708,-7.259524,0.470185,-0.063547,0.057371,0.117608,1.012163,2.734935,782.04,40.70,highres
5.753872,66460408932,2.419895,-1.589995,-7.552794,0.310811,-0.356583,0.087519,0.117608,1.012163,2.734935,782.04,40.70,highres
5.781209,66460431211,2.638086,-1.757375,-8.631045,0.037957,-0.566569,0.058400,0.120995,1.017112,2.737710,782.04,40.70,highres
5.798507,66460452058,3.264985,-1.588127,-9.739689,0.122442,-0.386932,0.008279,0.120995,1.017112,2.737710,782.04,40.70,highres
5.814707,66460473816,3.422929,-1.434285,-9.631199,0.139930,-0.074143,-0.049847,0.120995,1.017112,2.737710,782.04,40.70,highres
5.846370,66460493793,3.325774,-0.958841,-8.986041,0.130497,0.066833,-0.063484,0.120995,1.017112,2.737710,782.04,40.70,highres
5.853257,66460512393,3.298555,-0.642769,-7.819396,0.172040,0.085224,0.000369,0.120995,1.017112,2.737710,782.04,40.70,highres
5.880892,66460529294,3.240577,-0.723149,-8.032116,0.247700,-0.098349,0.101292,0.120995,1.017112,2.737710,782.05,40.70,highres
5.899035,66460548715,3.740929,-0.762716,-9.542088,0.161639,-0.278639,0.260331,0.113938,1.010429,2.749629,782.05,40.70,highres
5.919956,66460567032,3.846048,-0.944838,-10.466661,0.000715,-0.104163,0.467215,0.117026,1.000864,2.742582,782.05,40.70,highres
5.946346,66460588827,3.974286,-1.500094,-9.544999,-0.105088,0.302938,0.595601,0.117026,1.000864,2.742582,782.05,40.70,highres
5.964372,66460611438,4.198192,-1.172039,-9.358143,0.128794,0.401138,0.326710,0.117026,1.000864,2.742582,782.05,40.70,highres
5.980789,66460633820,4.216588,-0.549360,-9.570437,0.059817,0.217620,0.113265,0.117026,1.000864,2.742582,782.05,40.70,highres
6.003247,66460651101,4.233806,-1.124169,-9.172183,-0.118385,0.057463,-0.010874,0.117026,1.000864,2.742582,782.05,40.70,highres
6.015065,66460676550,4.078004,-1.823360,-9.909363,0.076663,-0.014075,-0.423547,0.117026,1.000864,2.742582,782.05,40.70,highres
6.046640,66460692184,4.307517,-0.643376,-9.710710,-0.172662,0.075713,-0.572904,0.121330,1.011712,2.759894,782.06,40.70,highres
6.054855,66460714242,3.880936,0.241477,-7.992030,-0.339412,-0.029384,-0.405195,0.118783,1.002357,2.759868,782.06,40.70,highres
6.086942,66460737491,3.116061,0.041083,-8.404029,-0.197918,-0.189318,-0.180650,0.118783,1.002357,2.759868,782.06,40.70,highres
6.099710,66460752945,3.845220,-0.594958,-9.060150,-0.283071,-0.093115,-0.017433,0.118783,1.002357,2.759868,782.06,40.70,highres
6.123020,66460756595,3.954769,-0.724509,-9.074361,-0.342545,-0.043428,0.011148,0.118783,1.002357,2.759868,782.06,40.70,highres
6.148740,66460788725,4.007017,-1.585445,-8.257273,-0.477143,-0.010254,-0.009910,0.118783,1.002357,2.759868,782.06,40.70,highres
6.154344,66460806318,4.275180,-0.678478,-9.049641,-0.162839,-0.121729,-0.134266,0.118783,1.002357,2.759868,782.06,40.70,highres
6.179295,66460827050,4.449154,-0.626349,-9.667430,0.183851,-0.076787,-0.194068,0.110139,1.000154,2.779968,782.06,40.70,highres
6.198849,66460849064,3.643049,-0.425481,-9.971196,0.268754,0.058470,-0.226908,0.085230,1.004806,2.796226,782.07,40.70,highres
6.215585,66460872148,3.528620,-0.178654,-9.969754,0.026946,0.195823,-0.131962,0.085230,1.004806,2.796226,782.07,40.70,highres
6.247009,66460897867,3.809926,-0.656390,-8.932047,-0.160367,0.345689,-0.063580,0.085230,1.004806,2.796226,782.07,40.70,highres
6.256101,66460914639,3.832703,-0.658737,-8.294128,-0.021235,0.315361,-0.047690,0.085230,1.004806,2.796226,782.07,40.70,highres
6.279152,66460931950,3.623327,-0.631817,-8.168040,0.080458,0.151527,-0.030844,0.085230,1.004806,2.796226,782.07,40.70,highres
6.279152,66460954734,3.074701,-0.642624,-7.882587,0.074041,-0.187683,-0.037344,0.085230,1.004806,2.796226,782.07,40.70,highres
6.320139,66460969074,3.282234,-0.719424,-8.446530,-0.062643,-0.352868,-0.077701,0.085230,1.004806,2.796226,782.07,40.70,highres
6.346044,66460989100,3.342215,-0.560804,-8.723191,-0.206669,-0.371337,-0.068435,0.089182,0.993963,2.787138,782.07,40.70,highres
6.355495,66461015087,3.581341,-0.906181,-8.385763,-0.133364,-0.337508,-0.015812,0.089182,0.993963,2.787138,782.05,40.70,highres
6.384754,66461032511,3.956766,-0.608113,-8.913228,0.105633,-0.316721,-0.057688,0.089182,0.993963,2.787138,782.05,40.70,highres
6.398688,66461052773,3.754047,-0.104039,-9.661753,0.320976,-0.200319,-0.028316,0.089182,0.993963,2.787138,782.05,40.70,highres
6.425022,66461072179,3.872314,-0.315763,-9.886132,0.244688,-0.114016,0.042693,0.089182,0.993963,2.787138,782.05,40.70,highres
6.449598,66461094789,4.010733,-0.620866,-10.329165,0.002136,0.045802,0.081331,0.089182,0.993963,2.787138,782.05,40.70,highres
6.466300,66461114117,4.084232,-0.832933,-9.395554,-0.182964,0.219021,0.077273,0.088813,0.978207,2.809299,782.05,40.70,highres
6.480369,66461129118,3.849139,-0.846567,-8.662272,-0.144197,0.159875,0.046005,0.080034,0.966069,2.806841,782.05,40.70,highres
6.506954,66461155548,3.173680,-1.007055,-9.163692,-0.248940,-0.121212,-0.012095,0.080034,0.966069,2.806841,782.05,40.70,highres
6.514215,66461175049,3.143021,-0.653600,-9.596744,-0.309350,-0.181191,-0.029036,0.080034,0.966069,2.806841,782.04,40.70,highres
6.547022,66461192967,3.353477,-0.462344,-9.782675,-0.205863,0.019071,-0.018343,0.080034,0.966069,2.806841,782.04,40.70,highres
6.555091,66461214625,3.523038,-0.638000,-9.498328,-0.196245,0.229628,0.004272,0.080034,0.966069,2.806841,782.04,40.70,highres
6.582610,66461229615,3.813455,-0.481290,-9.068277,-0.196844,0.271136,0.010439,0.080034,0.966069,2.806841,782.04,40.70,highres
6.599902,66461252802,4.129538,-0.253304,-8.581639,-0.057975,0.214131,0.015839,0.083292,0.967326,2.820171,782.05,40.70,highres
6.624622,66461269786,4.123553,-0.131210,-8.459475,-0.062822,0.103294,0.037349,0.097280,0.968439,2.824596,782.05,40.70,highres
6.649493,66461297053,3.763165,-0.677782,-8.850783,0.040495,-0.182694,0.018381,0.097280,0.968439,2.824596,782.05,40.70,highres
6.656014,66461307117,3.648129,-0.613794,-9.492178,0.076386,-0.153252,-0.005131,0.097280,0.968439,2.824596,782.05,40.70,highres
6.679572,66461334673,3.415837,-0.323238,-9.472339,0.035567,0.137204,-0.025118,0.097280,0.968439,2.824596,782.05,40.70,highres
6.699291,66461352321,3.526225,-0.238507,-8.661379,0.035497,0.187269,0.007311,0.097280,0.968439,2.824596,782.05,40.70,highres
6.715932,66461372875,3.772535,-0.406343,-8.302382,0.064450,0.083567,0.031159,0.097280,0.968439,2.824596,782.05,40.70,highres
6.746330,66461392348,3.723647,-0.639784,-8.571173,0.016213,-0.043418,0.007057,0.081862,0.964753,2.823149,782.05,40.70,highres
6.753867,66461407194,3.620489,-0.433901,-8.767958,0.032235,-0.092973,-0.002359,0.087555,0.963378,2.800617,782.04,40.70,highres
6.782343,66461432600,3.751782,-0.417057,-9.104447,0.009900,-0.078484,0.012817,0.087555,0.963378,2.800617,782.04,40.70,highres
6.799166,66461448227,3.750578,-0.446918,-8.983640,-0.025590,-0.062880,0.027165,0.087555,0.963378,2.800617,782.04,40.70,highres
6.815392,66461474822,3.668711,-0.513819,-9.130760,0.057977,-0.116338,0.002256,0.087555,0.963378,2.800617,782.04,40.70,highres
6.848966,66461497224,3.630512,-0.521537,-9.382431,0.081160,-0.080577,-0.020123,0.087555,0.963378,2.800617,782.04,40.70,highres
6.853542,66461512539,3.660153,-0.632899,-9.467489,0.041263,-0.009535,-0.016224,0.087555,0.963378,2.800617,782.04,40.70,highres
6.882417,66461535134,3.678250,-0.278009,-9.508888,0.016001,0.073627,-0.003767,0.073283,0.961373,2.828839,782.04,40.70,highres
6.901080,66461554356,3.790134,-0.465317,-9.377934,-0.002379,0.110674,0.009873,0.082879,0.957902,2.836324,782.04,40.70,highres
6.913549,66461569274,3.859206,-0.606178,-9.144917,0.012787,0.127282,0.001548,0.082879,0.957902,2.836324,782.04,40.70,highres
6.945690,66461581943,3.875162,-0.569198,-8.723442,-0.002772,0.113620,-0.002080,0.082879,0.957902,2.836324,782.04,40.70,highres
6.955531,66461611911,3.717495,-0.455368,-8.587358,0.015164,0.000977,-0.026785,0.082879,0.957902,2.836324,782.04,40.70,highres
6.980540,66461634685,3.620223,-0.466064,-8.524008,0.082685,-0.084813,-0.024860,0.082879,0.957902,2.836324,782.04,40.70,highres
6.998102,66461649633,3.655482,-0.746443,-8.815327,0.162324,-0.109643,-0.040466,0.082879,0.957902,2.836324,782.04,40.85,highres
7.015902,66461672340,3.707836,-0.631278,-9.421836,0.157463,-0.053532,-0.059893,0.074297,0.958231,2.829398,782.04,40.85,highres
7.046948,66461692965,3.684428,-0.409544,-9.107513,0.093147,-0.015279,-0.017042,0.079518,0.983536,2.812380,782.04,40.85,highres
7.053971,66461712603,3.608551,-0.454620,-9.165559,0.052302,-0.036408,0.044449,0.079518,0.983536,2.812380,782.04,40.85,highres
7.080721,66461732646,3.686076,-0.730582,-9.252304,0.041899,-0.013555,0.062767,0.079518,0.983536,2.812380,782.05,41.00,highres
7.097854,66461754037,3.661492,-0.673036,-9.080346,0.040982,0.051371,0.042080,0.079518,0.983536,2.812380,782.05,41.00,highres
7.120020,66461771064,3.641001,-0.708170,-8.843127,0.054809,0.057473,0.032330,0.079518,0.983536,2.812380,782.05,41.00,highres
7.146938,66461794948,3.669501,-0.956276,-8.891397,-0.056696,-0.006681,-0.012020,0.079518,0.983536,2.812380,782.05,41.00,highres
7.161452,66461807884,3.661764,-0.782250,-8.895100,-0.107905,-0.029306,-0.035136,0.078118,0.957562,2.821333,782.06,41.00,highres
7.180134,66461832397,3.579851,-0.336844,-8.878342,-0.117250,-0.098962,-0.007479,0.076131,0.949712,2.821265,782.06,41.00,highres
7.201929,66461852861,3.747741,-0.682166,-9.138621,-0.081995,-0.099755,0.019478,0.076131,0.949712,2.821265,782.06,41.00,highres
7.215900,66461866711,3.725466,-0.692420,-9.213219,-0.061337,-0.082715,0.009093,0.076131,0.949712,2.821265,782.06,41.00,highres
7.247027,66461890263,3.933775,-0.462928,-9.203583,0.068471,-0.037816,0.019173,0.076131,0.949712,2.821265,782.06,41.00,highres
7.255756,66461906380,4.029131,-0.571090,-9.501253,0.155808,0.009893,0.036936,0.076131,0.949712,2.821265,782.06,41.00,highres
7.281714,66461923572,3.771620,-0.615577,-9.368835,0.110280,0.052366,0.036582,0.076131,0.949712,2.821265,782.06,41.00,highres
7.281714,66461947752,3.575183,-0.794709,-9.130500,-0.031405,0.031212,0.036277,0.078247,0.954410,2.827978,782.06,41.00,highres
7.321999,66461967796,3.408105,-0.864341,-8.801845,-0.087605,0.040680,0.017645,0.063836,0.950601,2.821890,782.07,41.00,highres
7.347303,66461987662,3.267431,-0.617577,-8.660504,-0.026518,0.055035,-0.011676,0.063836,0.950601,2.821890,782.07,41.00,highres
7.362447,66462010448,3.392422,-0.632445,-8.646857,0.024405,0.051040,-0.022856,0.063836,0.950601,2.821890,782.07,41.00,highres
7.380065,66462030708,3.579170,-0.489892,-8.899211,-0.015217,-0.036594,-0.028169,0.063836,0.950601,2.821890,782.07,41.00,highres
7.398375,66462048711,3.613910,-0.390298,-9.317857,0.041120,-0.048951,-0.019646,0.063836,0.950601,2.821890,782.07,41.00,highres
7.414835,66462068020,3.706073,-0.697130,-9.671025,0.123143,0.051370,0.020091,0.063836,0.950601,2.821890,782.07,41.00,highres
7.448464,66462087966,3.897341,-1.051274,-9.580770,0.135564,0.229375,0.022681,0.079384,0.963996,2.821628,782.07,41.00,highres
7.454811,66462104034,3.908599,-0.777121,-9.056606,-0.023696,0.310612,0.001067,0.078741,0.955499,2.817034,782.07,41.00,highres
7.479533,66462122825,3.828068,-0.347886,-8.757964,-0.145940,0.247615,0.028029,0.078741,0.955499,2.817034,782.07,41.00,highres
7.498156,66462142772,3.674351,-0.623100,-8.922663,-0.168849,0.078554,0.056741,0.078741,0.955499,2.817034,782.07,41.00,highres
7.524140,66462160210,3.772578,-0.585544,-9.392200,-0.153196,-0.006266,0.048740,0.078741,0.955499,2.817034,782.07,41.00,highres
7.548873,66462188619,3.751270,-0.698174,-8.814601,0.000970,0.182401,0.008480,0.078741,0.955499,2.817034,782.07,41.00,highres
7.554039,66462203142,3.806117,-0.570026,-8.587506,0.028765,0.204392,-0.005873,0.078741,0.955499,2.817034,782.06,41.00,highres
7.581002,66462223279,3.868953,-0.329111,-8.335979,-0.048509,0.102683,0.006650,0.077797,0.960981,2.821397,782.06,41.00,highres
7.606934,66462242886,4.032821,-0.473373,-8.814193,0.074297,-0.004110,0.019238,0.080655,0.975549,2.818254,782.06,41.00,highres
7.615386,66462263682,3.948055,-0.542013,-9.006606,0.158879,-0.027431,0.009399,0.080655,0.975549,2.818254,782.06,41.00,highres
7.646601,66462280667,3.931190,-0.736732,-8.941314,0.167444,-0.008914,0.018350,0.080655,0.975549,2.818254,782.05,41.00,highres
7.653767,66462306501,3.976916,-0.878898,-8.736777,0.066504,0.004487,0.025944,0.080655,0.975549,2.818254,782.05,41.00,highres
7.680531,66462325650,3.730497,-0.674825,-8.809680,-0.096485,-0.048438,0.010674,0.080655,0.975549,2.818254,782.05,41.00,highres
7.700394,66462340222,3.679302,-0.493100,-9.056379,-0.127461,-0.081418,0.011307,0.080655,0.975549,2.818254,782.05,41.00,highres
7.718942,66462360175,3.733671,-0.609396,-9.201373,-0.104282,-0.058071,0.007725,0.082987,0.961161,2.808654,782.05,41.00,highres
7.745831,66462387742,3.865582,-0.605739,-9.177534,-0.087950,-0.017982,0.002078,0.071612,0.967177,2.807582,782.05,41.00,highres
7.762850,66462403413,4.140940,-0.482346,-8.953218,-0.070226,0.007457,-0.009538,0.071612,0.967177,2.807582,782.05,41.00,highres
7.780508,66462426555,4.093626,-0.604804,-9.070769,0.059497,-0.006440,-0.013786,0.071612,0.967177,2.807582,782.05,41.00,highres
7.800862,66462453545,4.062992,-0.629387,-9.011108,0.103331,0.015730,-0.006789,0.071612,0.967177,2.807582,782.05,41.00,highres
7.815634,66462470866,3.919463,-0.604853,-8.950792,0.056083,0.013340,-0.005657,0.071612,0.967177,2.807582,782.05,41.00,highres
7.847825,66462496687,3.618872,-0.724079,-8.990094,-0.164223,0.041412,0.015427,0.071612,0.967177,2.807582,782.05,41.00,highres
7.855258,66462513633,3.638094,-0.577272,-8.624488,-0.245392,-0.008070,0.024811,0.078165,0.970075,2.819153,782.05,41.00,highres
7.880539,66462531398,3.755984,-0.488000,-8.565613,-0.155227,-0.074807,0.037500,0.072910,0.960674,2.823849,782.06,41.00,highres
7.898360,66462551428,3.848208,-0.363347,-8.925922,-0.048974,-0.103011,0.033658,0.072910,0.960674,2.823849,782.06,41.00,highres
7.914979,66462570974,3.790267,-0.252129,-9.093564,0.008240,-0.062275,0.042608,0.072910,0.960674,2.823849,782.06,41.00,highres
7.946631,66462595653,3.837274,-0.360612,-8.823257,0.062809,0.044710,0.076727,0.072910,0.960674,2.823849,782.06,41.00,highres
7.955202,66462613525,3.761105,-0.760284,-8.511413,0.078471,0.024855,0.076416,0.072910,0.960674,2.823849,782.06,41.00,highres
7.982405,66462635722,3.834147,-0.930122,-8.616451,-0.007481,-0.133766,0.017195,0.072910,0.960674,2.823849,782.06,41.00,highres
7.998855,66462648266,3.692080,-0.484907,-8.855336,0.028926,-0.157944,-0.014834,0.074087,0.965818,2.821975,782.06,41.00,highres
8.023440,66462675920,3.711238,-0.578436,-9.476536,0.098247,-0.056905,0.036314,0.073616,0.959955,2.820507,782.06,41.00,highres
8.046113,66462693711,3.809275,-0.638446,-9.441558,0.041631,0.005537,0.032563,0.073616,0.959955,2.820507,782.06,41.00,highres
8.061207,66462713635,3.879346,-0.534664,-9.152378,0.008305,0.032730,0.041181,0.073616,0.959955,2.820507,782.06,41.00,highres
8.080813,66462734322,3.954768,-0.694582,-9.070769,-0.064979,-0.007731,0.051962,0.073616,0.959955,2.820507,782.06,41.00,highres
8.104285,66462753785,3.978158,-0.777476,-9.059195,-0.069309,-0.004881,-0.066509,0.073616,0.959955,2.820507,782.06,41.00,highres
8.114720,66462774194,3.547062,-0.419905,-9.048697,-0.020921,0.029450,-0.018094,0.073616,0.959955,2.820507,782.06,41.00,highres
8.147567,66462793735,3.618375,-0.517167,-8.972611,0.032411,0.074015,0.021193,0.075194,0.969180,2.824298,782.06,41.00,highres
8.155232,66462808432,3.920408,-0.875198,-9.028189,0.086611,0.111292,-0.005861,0.071118,0.970170,2.822136,782.06,41.00,highres
8.179526,66462834158,3.893767,-0.524370,-8.548822,-0.076943,-0.032560,-0.051818,0.071118,0.970170,2.822136,782.06,41.00,highres
8.206757,66462849120,3.746822,-0.316497,-8.770552,-0.078456,-0.138276,-0.026400,0.071118,0.970170,2.822136,782.05,41.00,highres
8.215125,66462865256,3.758386,-0.709980,-9.113660,-0.022246,-0.119023,0.013998,0.071118,0.970170,2.822136,782.05,41.00,highres
8.248572,66462888748,3.970529,-1.078431,-9.110056,0.030890,0.043152,-0.036174,0.071118,0.970170,2.822136,782.05,41.00,highres
8.256446,66462911592,4.073296,-0.415126,-8.746121,0.009060,0.058271,-0.136063,0.071118,0.970170,2.822136,782.05,41.00,highres
8.286172,66462928523,3.769554,-0.094195,-8.814912,-0.034354,-0.056442,-0.083584,0.079010,0.966943,2.818086,782.05,41.00,highres
8.286172,66462949750,3.636719,-0.166133,-9.269026,-0.074373,-0.147406,0.046561,0.071022,0.968578,2.821296,782.05,41.00,highres
8.326927,66462971703,3.516649,-0.522207,-9.368834,-0.027144,-0.004190,0.113487,0.071022,0.968578,2.821296,782.05,41.00,highres
8.347259,66462994264,3.590045,-1.033347,-9.094431,-0.013742,0.116241,0.049067,0.071022,0.968578,2.821296,782.05,41.00,highres
8.354346,66463014153,3.564934,-0.551146,-8.688290,-0.064087,0.066411,-0.020292,0.071022,0.968578,2.821296,782.05,41.00,highres
8.379033,66463028839,3.715356,-0.100133,-8.641383,-0.089177,-0.025926,0.009159,0.071022,0.968578,2.821296,782.05,41.00,highres
8.398496,66463049001,3.768622,-0.253299,-8.989201,-0.103117,-0.119043,0.067298,0.071022,0.968578,2.821296,782.05,41.00,highres
8.416980,66463073878,3.874407,-0.832705,-9.340984,-0.023104,-0.026390,0.050832,0.072954,0.962206,2.818185,782.05,41.00,highres
8.445558,66463094590,3.827710,-0.772049,-9.309822,0.044328,0.108549,-0.023883,0.076897,0.963331,2.820849,782.06,41.00,highres
8.454377,66463114477,3.636212,-0.396760,-8.766874,0.016315,0.099291,-0.021087,0.076897,0.963331,2.820849,782.06,41.00,highres
8.480684,66463135120,3.719686,-0.413295,-8.558667,-0.025434,-0.008477,0.015873,0.076897,0.963331,2.820849,782.06,41.00,highres
8.498077,66463152900,3.737046,-0.424119,-8.836132,-0.013786,-0.065560,0.012212,0.076897,0.963331,2.820849,782.06,41.00,highres
8.515184,66463175102,3.816570,-0.623539,-9.296382,-0.041012,-0.038001,0.000379,0.076897,0.963331,2.820849,782.06,41.00,highres
8.546079,66463189388,3.906208,-0.696781,-9.217833,-0.052653,0.015621,-0.014723,0.076897,0.963331,2.820849,782.06,41.00,highres
8.553726,66463217160,3.845935,-0.368468,-8.798361,-0.006952,0.016304,-0.027027,0.074134,0.964210,2.823235,782.06,41.00,highres
8.579300,66463235254,3.728875,-0.338566,-8.722154,-0.008902,-0.027961,0.017682,0.075270,0.961620,2.822668,782.06,41.00,highres
8.599321,66463249177,3.708668,-0.572849,-8.852598,-0.031583,-0.073902,0.018598,0.075270,0.961620,2.822668,782.07,41.00,highres
8.615274,66463271571,3.679099,-0.724014,-9.220353,0.026696,-0.056949,-0.024784,0.075270,0.961620,2.822668,782.07,41.00,highres
8.647916,66463294659,3.759499,-0.344743,-9.318588,0.009824,0.037177,-0.026729,0.075270,0.961620,2.822668,782.07,41.00,highres
8.654426,66463308634,3.661491,-0.342650,-9.101894,-0.028975,0.023298,0.010251,0.075270,0.961620,2.822668,782.07,41.00,highres
8.683953,66463335153,3.717768,-0.268397,-8.973845,-0.062739,-0.006332,0.066442,0.075270,0.961620,2.822668,782.07,41.00,highres
8.698427,66463346839,3.710570,-0.434726,-8.854372,-0.004236,0.011999,0.073171,0.075026,0.966102,2.825008,782.07,41.00,highres
8.723937,66463367302,3.816056,-0.899939,-8.979342,0.090754,0.040708,0.013305,0.066112,0.962619,2.829118,782.07,41.00,highres
8.735961,66463385433,3.789576,-0.650292,-9.106680,0.108202,0.060477,-0.072093,0.066112,0.962619,2.829118,782.07,41.00,highres
8.764792,66463409412,3.680645,-0.075708,-8.813405,-0.029892,-0.013964,-0.040451,0.066112,0.962619,2.829118,782.07,41.00,highres
8.781825,66463427431,3.629490,-0.145429,-8.876378,-0.076116,-0.095689,0.019927,0.066112,0.962619,2.829118,782.07,41.00,highres
8.797512,66463445565,3.681368,-0.423876,-9.198590,-0.059519,-0.085436,0.063396,0.066112,0.962619,2.829118,782.07,41.00,highres
8.815100,66463469324,3.908240,-1.042210,-9.345214,0.087432,0.063130,0.015012,0.066112,0.962619,2.829118,782.07,41.00,highres
8.846515,66463497540,4.016845,-0.711884,-9.068864,0.045957,0.099984,-0.092028,0.071858,0.967281,2.822559,782.08,41.00,highres
8.855640,66463506926,3.816836,-0.334758,-8.832696,-0.024345,0.024606,-0.091452,0.080476,0.971465,2.825306,782.08,41.00,highres
8.880754,66463531921,3.601775,0.036868,-9.124883,-0.058869,-0.043278,0.030151,0.080476,0.971465,2.825306,782.08,41.00,highres
8.899547,66463552900,3.662689,-0.653883,-9.186884,-0.030808,0.066364,0.079890,0.080476,0.971465,2.825306,782.08,41.00,highres
8.924573,66463572148,3.809712,-0.970630,-8.965835,-0.023107,0.128086,-0.005460,0.080476,0.971465,2.825306,782.07,41.00,highres
8.946273,66463592245,3.687114,-0.258452,-8.521834,-0.074912,0.063635,-0.007928,0.080476,0.971465,2.825306,782.07,41.00,highres
8.953833,66463609772,3.787917,-0.233016,-8.440053,-0.084580,-0.045094,0.036770,0.080476,0.971465,2.825306,782.07,41.00,highres
8.981898,66463632585,3.947587,-0.635927,-8.758340,-0.021356,-0.088160,0.004088,0.072428,0.965690,2.824790,782.07,41.00,highres
8.998489,66463651943,3.733416,-0.368718,-9.006950,-0.023391,-0.095214,-0.056009,0.077949,0.966415,2.835132,782.07,40.85,highres
9.015269,66463674843,3.522634,-0.237310,-8.941488,0.027641,-0.087820,0.009569,0.077949,0.966415,2.835132,782.07,40.85,highres
9.047033,66463694286,3.875537,-0.479903,-9.474312,0.109748,-0.017067,0.087124,0.077949,0.966415,2.835132,782.07,40.85,highres
9.054520,66463713137,3.938902,-0.809946,-8.976324,0.099831,0.009305,0.045264,0.077949,0.966415,2.835132,782.07,40.85,highres
9.080387,66463735342,3.781154,-0.409331,-8.917738,-0.013121,-0.061028,0.008655,0.077949,0.966415,2.835132,782.06,40.70,highres
9.098142,66463749881,3.760155,-0.460860,-8.988832,-0.036194,-0.066995,0.042613,0.077949,0.966415,2.835132,782.06,40.70,highres
9.120631,66463774378,3.985127,-0.928726,-9.478073,0.013349,-0.015272,-0.063652,0.069423,0.968497,2.831810,782.06,40.70,highres
9.148538,66463793298,3.689529,-0.418562,-9.564019,-0.047317,0.033097,-0.122972,0.069403,0.965976,2.831053,782.06,40.70,highres
9.155611,66463804986,3.584825,-0.232844,-9.363276,-0.071941,0.047638,-0.092642,0.069403,0.965976,2.831053,782.06,40.70,highres
9.182068,66463829654,3.718950,-0.361803,-8.910365,-0.041728,0.102629,0.012389,0.069403,0.965976,2.831053,782.06,40.70,highres
9.199024,66463842087,3.761381,-0.644307,-8.619531,-0.004251,0.109986,0.018496,0.069403,0.965976,2.831053,782.06,40.70,highres
9.215154,66463864939,3.885244,-0.513175,-8.623345,-0.011969,0.038349,-0.021009,0.069403,0.965976,2.831053,782.06,40.70,highres
9.234027,66463881324,3.921010,-0.215051,-8.809566,-0.019266,-0.025963,-0.032821,0.069403,0.965976,2.831053,782.06,40.70,highres
9.254730,66463904797,4.096880,-0.867967,-8.891697,-0.007306,-0.042039,-0.001409,0.074032,0.962189,2.824903,782.06,40.70,highres
9.280013,66463919388,4.081234,-1.007929,-9.321303,0.072803,-0.012321,-0.055517,0.074895,0.967042,2.834901,782.06,40.70,highres
9.289972,66463936878,3.698190,-0.175617,-9.134952,0.047726,0.026236,-0.178643,0.074895,0.967042,2.834901,782.06,40.70,highres
9.289972,66463962254,3.509158,0.139871,-9.197128,-0.009220,-0.025851,-0.117196,0.074895,0.967042,2.834901,782.05,40.70,highres
9.334895,66463982637,3.855414,-0.650292,-8.912760,0.053781,0.051728,0.004394,0.074895,0.967042,2.834901,782.05,40.70,highres
9.360583,66464003539,3.857292,-0.964285,-8.852783,0.079131,0.162600,0.029746,0.074895,0.967042,2.834901,782.05,40.70,highres
9.380500,66464023355,3.685130,-0.584086,-8.676282,-0.176431,0.025950,-0.020565,0.074895,0.967042,2.834901,782.05,40.70,highres
9.403879,66464042880,3.390958,0.146943,-8.855301,-0.237830,-0.141487,-0.069709,0.071347,0.964837,2.824286,782.06,40.70,highres
9.414403,66464063494,3.371806,-0.046768,-9.041219,-0.151072,-0.145336,0.020754,0.070507,0.958044,2.832150,782.06,40.70,highres
9.446654,66464092279,3.651883,-0.430002,-9.374133,0.087976,0.083133,0.002964,0.070507,0.958044,2.832150,782.06,40.70,highres
9.454966,66464114698,3.496720,0.003190,-8.777280,0.020339,0.091876,0.002143,0.070507,0.958044,2.832150,782.06,40.70,highres
9.484947,66464132336,3.794384,-0.162040,-8.448114,0.030445,-0.004642,0.078463,0.070507,0.958044,2.832150,782.05,40.70,highres
9.498359,66464152979,4.279208,-0.926937,-8.766660,0.073637,-0.068518,0.041480,0.070507,0.958044,2.832150,782.05,40.70,highres
9.526581,66464173214,4.153455,-0.615929,-9.561211,0.022329,-0.055889,-0.034600,0.070507,0.958044,2.832150,782.05,40.70,highres
9.546152,66464193392,3.971397,-0.359926,-9.460582,-0.069058,-0.003505,-0.001664,0.071188,0.966554,2.824511,782.05,40.70,highres
9.554727,66464208090,3.969947,-0.401436,-9.144813,-0.041820,0.052645,0.016916,0.078896,0.958746,2.813143,782.05,40.70,highres
9.579564,66464227556,3.714486,-0.651225,-8.883463,0.030505,0.094135,-0.004193,0.078896,0.958746,2.813143,782.05,40.70,highres
9.598413,66464245575,3.531567,-0.350969,-8.586961,0.004004,0.046922,-0.047776,0.078896,0.958746,2.813143,782.05,40.70,highres
9.615047,66464272499,3.439380,-0.226654,-8.655119,-0.008109,-0.065515,-0.030984,0.078896,0.958746,2.813143,782.05,40.70,highres
9.647510,66464295504,3.594646,-0.267780,-8.929843,0.028103,-0.056445,0.007841,0.078896,0.958746,2.813143,782.06,40.70,highres
9.655030,66464318679,3.900052,-0.401442,-9.176723,0.004218,-0.001836,0.030204,0.078896,0.958746,2.813143,782.06,40.70,highres
9.682412,66464330466,3.993076,-0.664374,-8.995545,0.015121,-0.006232,0.020830,0.073962,0.968356,2.820499,782.06,40.70,highres
9.701802,66464353492,3.988723,-0.472456,-9.142846,0.072278,-0.007282,-0.080304,0.069362,0.966922,2.818338,782.06,40.70,highres
9.715717,66464372860,3.558450,-0.113824,-9.072129,-0.037157,-0.055853,-0.033593,0.069362,0.966922,2.818338,782.05,40.70,highres
9.746269,66464388332,3.673238,-0.129183,-9.062010,-0.072058,-0.064947,0.037991,0.069362,0.966922,2.818338,782.05,40.70,highres
9.755030,66464409156,3.729598,-0.527579,-8.968641,-0.043732,-0.009113,0.075597,0.069362,0.966922,2.818338,782.05,40.70,highres
9.779221,66464427608,3.690790,-0.864954,-9.175191,0.009258,0.030877,0.048040,0.069362,0.966922,2.818338,782.05,40.70,highres
9.800306,66464448797,3.682484,-0.586852,-8.984859,0.021710,0.056310,-0.026761,0.069362,0.966922,2.818338,782.06,40.70,highres
9.816072,66464471800,3.894714,-0.326675,-9.295469,0.067525,0.037373,-0.071048,0.061090,0.955094,2.833712,782.06,40.70,highres
9.835032,66464490899,3.818805,-0.206936,-9.359003,-0.053062,-0.020693,-0.042093,0.061090,0.955094,2.833712,782.06,40.70,highres
9.863268,66464511051,3.822893,-0.247578,-9.318771,-0.057695,0.017562,0.017672,0.061090,0.955094,2.833712,782.06,40.70,highres
9.879505,66464533326,3.888821,-0.546269,-9.073434,-0.008157,0.133375,0.017734,0.061090,0.955094,2.833712,782.06,40.70,highres
9.896934,66464553918,3.783590,-0.469537,-8.502171,0.017740,0.146718,-0.008740,0.061090,0.955094,2.833712,782.06,40.70,highres
9.913718,66464573793,3.738103,-0.365394,-8.425560,0.029941,0.075272,-0.011536,0.061090,0.955094,2.833712,782.06,40.70,highres
9.947082,66464592933,3.681864,-0.155504,-8.442040,-0.046183,-0.059296,0.002048,0.061090,0.955094,2.833712,782.06,40.70,highres
9.957655,66464614045,3.981058,-0.484904,-9.102183,-0.000725,-0.153018,0.019581,0.065048,0.971361,2.827247,782.05,40.70,highres
9.980372,66464635415,4.136334,-0.637978,-9.757833,0.051242,-0.010646,-0.050811,0.065048,0.971361,2.827247,782.05,40.70,highres
10.000531,66464648488,3.951225,-0.444203,-9.646743,0.064012,0.068481,-0.064407,0.065048,0.971361,2.827247,782.05,40.70,highres
10.016257,66464673527,3.892522,-0.428837,-9.036055,-0.008544,0.125669,-0.006954,0.065048,0.971361,2.827247,782.05,40.70,highres
10.046429,66464694274,3.845837,-0.544951,-8.611103,-0.089483,0.045645,-0.027112,0.065048,0.971361,2.827247,782.05,40.70,highres
10.061670,66464710499,3.727510,-0.360653,-8.721294,-0.075775,-0.008964,-0.058869,0.065048,0.971361,2.827247,782.05,40.70,highres
10.080497,66464734216,3.552752,-0.249080,-8.866265,-0.033052,0.007210,-0.003486,0.065048,0.971361,2.827247,782.05,40.70,highres
10.099001,66464749463,3.690221,-0.469537,-8.874454,0.055811,0.078999,0.002667,0.078127,0.984937,2.822248,782.05,40.70,highres
10.115082,66464767781,4.345394,-1.348747,-9.030694,0.214115,0.134528,-0.110191,0.078127,0.984937,2.822248,782.05,40.70,highres
10.146222,66464783758,4.530978,-0.902508,-9.420438,0.161900,0.117624,-0.282545,0.078127,0.984937,2.822248,782.05,40.70,highres
10.154335,66464810898,4.590402,-0.321103,-9.222793,-0.023253,-0.017778,-0.287131,0.078127,0.984937,2.822248,782.05,40.70,highres
10.181540,66464835680,4.115361,0.094341,-9.064821,-0.122781,-0.014901,-0.111767,0.078127,0.984937,2.822248,782.05,40.70,highres
10.198486,66464853531,3.917886,-0.573411,-8.826908,-0.039162,0.049236,-0.071502,0.078127,0.984937,2.822248,782.05,40.70,highres
10.217810,66464875656,3.342478,-0.107053,-8.573449,-0.022087,0.061544,-0.124666,0.078127,0.984937,2.822248,782.05,40.70,highres
10.246867,66464890833,2.951145,0.134079,-8.473927,0.009181,0.024736,-0.027330,0.062763,0.961989,2.798593,782.05,40.70,highres
10.258608,66464913839,3.367342,-0.355894,-8.904531,0.056468,0.069419,-0.010546,0.062763,0.961989,2.798593,782.05,40.70,highres
10.278860,66464933866,3.562651,-0.770165,-8.583676,0.053574,0.049749,-0.108546,0.062763,0.961989,2.798593,782.06,40.70,highres
10.297290,66464953419,3.616004,0.295377,-8.400422,0.073004,-0.064616,-0.163031,0.062763,0.961989,2.798593,782.06,40.70,highres
10.297290,66464973311,3.846823,0.566968,-9.044484,0.121341,-0.175106,-0.024025,0.062763,0.961989,2.798593,782.06,40.70,highres
10.340713,66464994700,4.245497,-0.370195,-9.898658,0.024231,-0.133341,0.045455,0.062763,0.961989,2.798593,782.06,40.70,highres
10.354623,66465013626,4.262019,-0.320705,-9.911737,-0.083537,0.014966,-0.001781,0.062763,0.961989,2.798593,782.05,40.70,highres
10.383113,66465034808,4.048960,-0.067876,-9.314530,-0.002839,0.226267,0.054777,0.059745,0.961680,2.810281,782.05,40.70,highres
10.398408,66465052716,4.155873,-0.978283,-8.587161,0.010698,0.253339,0.053827,0.059745,0.961680,2.810281,782.05,40.70,highres
10.415834,66465075971,4.092836,-1.137843,-8.070610,-0.027746,0.061221,-0.168529,0.059745,0.961680,2.810281,782.05,40.70,highres
10.445091,66465091680,3.535489,0.062939,-8.139678,-0.013951,-0.078544,-0.203866,0.059745,0.961680,2.810281,782.05,40.70,highres
10.454971,66465115962,3.238937,0.643389,-8.698606,0.042352,-0.129452,0.013893,0.059745,0.961680,2.810281,782.05,40.70,highres
10.483907,66465130725,3.639798,-0.172930,-9.020849,0.133112,-0.012053,0.138027,0.059745,0.961680,2.810281,782.05,40.70,highres
10.497482,66465148213,4.620119,-1.275151,-9.228886,0.141016,0.078069,0.055340,0.059745,0.961680,2.810281,782.05,40.70,highres
10.524590,66465167083,4.416830,-0.394123,-8.894804,-0.020531,0.014293,-0.085832,0.053916,0.965972,2.824237,782.05,40.70,highres
10.546814,66465189161,4.145416,0.305458,-9.191468,-0.061238,-0.094601,-0.019223,0.053916,0.965972,2.824237,782.05,40.70,highres
10.564583,66465206432,4.022116,-0.282247,-9.348279,-0.069131,-0.055627,0.079096,0.053916,0.965972,2.824237,782.05,40.70,highres
10.580176,66465227577,4.065128,-1.027472,-9.096775,-0.034143,0.058779,0.039274,0.053916,0.965972,2.824237,782.05,40.70,highres
10.606899,66465253750,3.703995,-0.292989,-8.662663,0.036126,0.144969,-0.103738,0.053916,0.965972,2.824237,782.05,40.70,highres
10.614562,66465268797,3.508755,0.105047,-8.359491,0.014913,0.059925,-0.033758,0.053916,0.965972,2.824237,782.05,40.70,highres
10.646141,66465298903,4.006313,-0.322584,-8.872193,0.050457,-0.039863,0.053335,0.053916,0.965972,2.824237,782.05,40.70,highres
10.654291,66465316710,4.115923,-0.584043,-9.116312,0.005154,-0.051993,0.023852,0.075096,0.959282,2.817029,782.05,40.70,highres
10.680017,66465334322,4.104957,-0.347658,-9.184660,-0.013814,-0.026933,-0.002274,0.075096,0.959282,2.817029,782.06,40.70,highres
10.698444,66465346655,4.034971,-0.199004,-9.133017,0.000193,0.010241,0.005865,0.075096,0.959282,2.817029,782.06,40.70,highres
10.726612,66465374362,3.920555,-0.520375,-8.957575,0.007344,0.059695,0.002597,0.075096,0.959282,2.817029,782.06,40.70,highres
10.748008,66465394271,3.833044,-0.368103,-8.792517,-0.014778,0.038725,-0.021167,0.075096,0.959282,2.817029,782.06,40.70,highres
10.764428,66465412318,3.792409,-0.128328,-8.731809,0.001271,0.016407,-0.000723,0.075096,0.959282,2.817029,782.06,40.70,highres
10.782207,66465434690,3.921251,-0.282797,-8.839740,0.016502,0.010826,0.034585,0.075096,0.959282,2.817029,782.06,40.70,highres
10.798076,66465456657,4.097218,-0.481508,-8.795447,-0.004151,0.009491,0.022464,0.060719,0.971123,2.805682,782.06,40.70,highres
10.818038,66465474964,4.128860,-0.459712,-8.815083,0.010726,-0.003575,-0.002318,0.067734,0.968722,2.793181,782.06,40.70,highres
10.847091,66465496530,3.901651,-0.148676,-8.860072,-0.024613,-0.033077,0.007671,0.067734,0.968722,2.793181,782.06,40.70,highres
10.854419,66465511473,4.060372,-0.225430,-8.777493,0.004354,-0.038428,0.046890,0.067734,0.968722,2.793181,782.06,40.70,highres
10.881654,66465531176,4.376034,-0.633548,-9.043651,0.054798,-0.022101,0.038990,0.067734,0.968722,2.793181,782.06,40.70,highres
10.897904,66465548846,4.353928,-0.754361,-9.226375,0.015447,-0.005569,-0.023379,0.067734,0.968722,2.793181,782.06,40.70,highres
10.923936,66465568827,3.954506,-0.230697,-9.076910,-0.029441,0.005782,-0.041123,0.067734,0.968722,2.793181,782.06,40.70,highres
10.947304,66465592517,3.760365,-0.288422,-8.912980,-0.095604,-0.013221,0.002686,0.067178,0.967541,2.807342,782.06,40.70,highres
10.965890,66465617263,3.667604,-0.297229,-8.823804,-0.052039,0.001321,0.000349,0.063398,0.973197,2.798906,782.06,40.70,highres
10.979002,66465632379,3.683298,-0.337997,-8.713308,0.010540,0.027715,-0.007692,0.063398,0.973197,2.798906,782.06,40.70,highres
10.998036,66465654776,3.886272,-0.130092,-8.803665,0.069423,0.051180,0.009570,0.063398,0.973197,2.798906,782.06,40.85,highres
11.014091,66465669708,4.203671,-0.300103,-9.066868,0.061079,0.029787,0.035459,0.063398,0.973197,2.798906,782.06,40.85,highres
11.045899,66465691691,4.322262,-0.611986,-9.247932,-0.044211,-0.026938,0.022846,0.063398,0.973197,2.798906,782.06,40.85,highres
11.054965,66465708989,4.208543,-0.440808,-9.390381,-0.054375,-0.003810,-0.017076,0.063398,0.973197,2.798906,782.06,40.85,highres
11.080330,66465732474,3.874330,-0.134036,-9.152844,-0.037283,0.103241,0.006288,0.063509,0.970457,2.802707,782.05,41.00,highres
11.097520,66465754920,3.839213,-0.476652,-8.494876,0.026619,0.165352,0.062124,0.058278,0.963208,2.809004,782.05,41.00,highres
11.114198,66465769304,3.958916,-0.636934,-8.246729,0.054474,0.128978,0.027948,0.058278,0.963208,2.809004,782.05,41.00,highres
11.146281,66465794377,3.900258,-0.396913,-8.077558,0.011823,-0.052192,-0.045485,0.058278,0.963208,2.809004,782.05,41.00,highres
11.154435,66465814578,3.889344,0.028804,-8.659391,0.016454,-0.152540,-0.002814,0.058278,0.963208,2.809004,782.05,41.00,highres
11.180259,66465829970,4.043334,-0.247069,-9.118489,0.034736,-0.111682,0.037181,0.058278,0.963208,2.809004,782.05,41.00,highres
11.199409,66465856497,4.097221,-0.404740,-9.312080,0.034726,0.021537,0.008362,0.058278,0.963208,2.809004,782.05,41.00,highres
11.216529,66465871478,4.056931,-0.241324,-8.907743,0.013692,0.046889,0.031885,0.062354,0.970868,2.803910,782.05,41.00,highres
11.235425,66465887007,4.099087,-0.560537,-8.692554,0.021067,0.011156,0.042789,0.077812,0.980206,2.815747,782.05,41.00,highres
11.255796,66465914605,4.246296,-0.551236,-9.173462,-0.038970,-0.086669,-0.027070,0.077812,0.980206,2.815747,782.05,41.00,highres
11.280725,66465931889,4.135523,-0.272024,-9.423901,-0.056036,-0.058794,-0.021073,0.077812,0.980206,2.815747,782.05,41.00,highres
11.296637,66465949485,4.092182,-0.280837,-9.381023,-0.018083,0.039973,-0.003691,0.077812,0.980206,2.815747,782.05,41.00,highres
11.296637,66465965919,4.010144,-0.363739,-9.006215,0.005530,0.100093,0.001532,0.077812,0.980206,2.815747,782.06,41.00,highres
11.346412,66465987955,3.868913,-0.497141,-8.488811,-0.024544,0.077129,0.006697,0.077812,0.980206,2.815747,782.06,41.00,highres
11.353466,66466009415,3.840966,-0.519525,-8.578326,0.003047,0.022457,-0.021352,0.064419,0.967553,2.803417,782.06,41.00,highres
11.381534,66466027722,3.714575,-0.133275,-8.530529,-0.014490,-0.001421,-0.041767,0.068997,0.964029,2.791183,782.06,41.00,highres
11.397548,66466047761,3.989767,-0.152387,-8.780633,-0.007949,-0.047792,0.017744,0.068997,0.964029,2.791183,782.06,41.00,highres
11.420501,66466062553,4.267240,-0.390202,-9.036578,-0.002397,-0.058169,0.043110,0.068997,0.964029,2.791183,782.06,41.00,highres
11.449202,66466083053,4.332894,-0.435667,-9.256030,0.021986,-0.029586,0.027118,0.068997,0.964029,2.791183,782.06,41.00,highres
11.458518,66466104951,4.233734,-0.540756,-8.959815,-0.001169,0.013869,0.018128,0.068997,0.964029,2.791183,782.06,41.00,highres
11.481998,66466124340,4.070960,-0.588128,-8.855272,-0.025053,-0.017555,-0.012494,0.068997,0.964029,2.791183,782.05,41.00,highres
11.501172,66466143123,3.683527,-0.253145,-8.960194,-0.012828,-0.028970,-0.064102,0.059260,0.970415,2.806528,782.05,41.00,highres
11.515097,66466165839,3.656106,-0.093191,-9.050072,-0.012104,0.002155,-0.037059,0.055253,0.964662,2.806408,782.05,41.00,highres
11.546460,66466180331,3.841061,-0.240211,-8.724383,-0.044249,0.036572,0.005746,0.055253,0.964662,2.806408,782.05,41.00,highres
11.553024,66466194218,4.072713,-0.415217,-8.646230,-0.045222,0.033354,0.028548,0.055253,0.964662,2.806408,782.05,41.00,highres
11.580501,66466237019,4.057057,-0.424353,-8.749690,0.018005,-0.009964,0.006162,0.055253,0.964662,2.806408,782.05,41.00,highres
11.598413,66466255254,4.149367,-0.327088,-8.887921,0.020115,-0.031122,0.005844,0.055253,0.964662,2.806408,782.05,41.00,highres
11.616380,66466273064,4.198711,-0.283684,-8.911667,-0.025688,-0.058056,0.012909,0.055253,0.964662,2.806408,782.05,41.00,highres
11.647163,66466295372,4.078044,-0.337204,-8.907949,-0.013151,-0.057575,0.033778,0.065069,0.971065,2.800368,782.06,41.00,highres
11.654192,66466309954,4.065975,-0.457217,-8.966627,0.026892,-0.012723,0.025282,0.061793,0.971450,2.803909,782.06,41.00,highres
11.679704,66466335281,3.911956,-0.556848,-8.954937,0.038762,0.026945,-0.011459,0.061793,0.971450,2.803909,782.06,41.00,highres
11.697543,66466349901,3.885871,-0.366725,-8.783723,-0.001341,-0.001423,-0.014077,0.061793,0.971450,2.803909,782.06,41.00,highres
11.726848,66466372593,3.913575,-0.357308,-8.588735,-0.048392,-0.086188,-0.022403,0.061793,0.971450,2.803909,782.06,41.00,highres
11.746897,66466394614,3.820378,0.090575,-8.922512,-0.013232,-0.160976,0.002550,0.061793,0.971450,2.803909,782.06,41.00,highres
11.753798,66466412095,3.822113,-0.008363,-9.354784,0.015845,-0.103841,0.073362,0.061793,0.971450,2.803909,782.06,41.00,highres
11.779975,66466433216,4.053153,-0.667612,-9.530128,0.044398,0.034264,0.093473,0.064560,0.971156,2.811012,782.06,41.00,highres
11.805884,66466453062,4.108626,-0.828130,-9.019547,0.008007,0.127772,-0.006417,0.064487,0.963537,2.811103,782.06,41.00,highres
11.814373,66466474901,3.864209,-0.316235,-8.565321,-0.001959,0.034348,-0.040132,0.064487,0.963537,2.811103,782.06,41.00,highres
11.848542,66466492454,3.715580,-0.052099,-8.710480,-0.022610,-0.054207,0.014384,0.064487,0.963537,2.811103,782.06,41.00,highres
11.853446,66466512713,3.956905,-0.372755,-9.065282,-0.027624,-0.059640,0.052407,0.064487,0.963537,2.811103,782.06,41.00,highres
11.881505,66466532938,4.413251,-0.656444,-9.249137,0.026353,0.012323,0.013596,0.064487,0.963537,2.811103,782.07,41.00,highres
11.898164,66466553199,4.402218,-0.548154,-9.344427,0.011845,0.047844,-0.047667,0.064487,0.963537,2.811103,782.07,41.00,highres
11.915395,66466575607,4.086070,-0.213057,-9.184629,-0.036356,0.047888,-0.027266,0.060429,0.967355,2.811356,782.07,41.00,highres
11.946506,66466594749,3.857839,-0.221245,-8.943937,-0.074297,0.063776,0.004570,0.072910,0.975110,2.818019,782.07,41.00,highres
11.958791,66466612267,3.733963,-0.462440,-8.626691,-0.092543,0.045576,0.008026,0.072910,0.975110,2.818019,782.06,41.00,highres
11.979309,66466628516,3.645809,-0.423369,-8.470962,-0.074202,0.026896,-0.016071,0.072910,0.975110,2.818019,782.06,41.00,highres
12.000345,66466647611,3.557410,-0.173548,-8.373521,-0.021451,0.012933,-0.030200,0.072910,0.975110,2.818019,782.06,41.00,highres
12.015995,66466668589,3.860986,-0.155209,-8.518339,0.017694,-0.019973,0.028091,0.072910,0.975110,2.818019,782.06,41.00,highres
12.047914,66466687889,4.333519,-0.434549,-8.745339,-0.040337,-0.103662,0.036032,0.072910,0.975110,2.818019,782.05,41.00,highres
12.054401,66466715056,4.371084,-0.414188,-9.005748,-0.030030,-0.155016,0.002934,0.068068,0.969115,2.803195,782.05,41.00,highres
12.085048,66466733249,4.153892,-0.610467,-9.410943,0.011758,-0.096767,-0.041070,0.062156,0.977855,2.804088,782.05,41.00,highres
12.097785,66466752868,3.828905,-0.275288,-9.233309,0.014094,-0.008216,-0.060898,0.062156,0.977855,2.804088,782.05,41.00,highres
12.115764,66466773075,3.602836,0.045194,-8.966626,0.040907,0.037448,-0.011309,0.062156,0.977855,2.804088,782.05,41.00,highres
12.147711,66466793442,3.708215,-0.050922,-8.891655,0.036494,0.012691,0.051763,0.062156,0.977855,2.804088,782.05,41.00,highres
12.165545,66466813754,3.858684,-0.521813,-8.875072,0.005848,-0.006968,0.058282,0.062156,0.977855,2.804088,782.05,41.00,highres
12.179719,66466835226,3.914488,-0.459542,-8.819662,-0.054131,-0.033338,0.001775,0.062156,0.977855,2.804088,782.05,41.00,highres
12.197769,66466846270,3.867384,-0.483027,-8.773066,-0.046606,-0.052867,-0.013401,0.062156,0.977855,2.804088,782.06,41.00,highres
12.215336,66466873312,3.759175,-0.041050,-8.952929,0.000875,-0.028652,0.004077,0.077544,0.977149,2.802920,782.06,41.00,highres
12.245846,66466893690,4.227696,-0.392926,-9.210824,0.042591,0.001398,0.059854,0.077544,0.977149,2.802920,782.06,41.00,highres
12.253402,66466908382,4.279283,-0.644706,-9.148520,0.013113,0.012097,0.048250,0.077544,0.977149,2.802920,782.06,41.00,highres
12.280422,66466927751,4.122115,-0.553090,-9.105004,0.004866,0.019733,0.004879,0.077544,0.977149,2.802920,782.07,41.00,highres
12.298536,66466947712,3.896113,-0.304344,-9.025282,0.005022,0.058723,-0.008884,0.077544,0.977149,2.802920,782.07,41.00,highres
12.298536,66466968068,3.672179,-0.160998,-8.776422,-0.036387,0.052736,0.013720,0.077544,0.977149,2.802920,782.07,41.00,highres
12.348517,66466973648,3.730964,-0.391614,-8.690185,-0.045530,0.043862,0.024121,0.077544,0.977149,2.802920,782.07,41.00,highres
12.358224,66467005831,3.741465,-0.328258,-8.700437,-0.109176,-0.066656,-0.019940,0.052894,0.951907,2.793585,782.06,41.00,highres
12.378689,66467027559,3.724270,0.044379,-8.936414,-0.026395,-0.069608,-0.027897,0.052894,0.951907,2.793585,782.06,41.00,highres
12.401468,66467048963,3.958273,-0.351889,-9.316389,0.052741,-0.012961,0.033022,0.052894,0.951907,2.793585,782.06,41.00,highres
12.417176,66467070682,4.011030,-0.367788,-8.997749,-0.024004,0.048644,0.019570,0.052894,0.951907,2.793585,782.06,41.00,highres
12.449179,66467089109,3.932025,-0.232940,-8.778077,-0.011400,0.038958,0.017992,0.052894,0.951907,2.793585,782.06,41.00,highres
12.455301,66467108885,4.015558,-0.361235,-8.840207,0.019222,0.009348,0.039087,0.052894,0.951907,2.793585,782.06,41.00,highres
12.486023,66467128005,4.001624,-0.445895,-9.058778,0.020443,-0.015392,0.012514,0.057789,0.967506,2.814438,782.06,41.00,highres
12.499284,66467148569,3.931968,-0.345304,-9.057848,0.014946,-0.000120,-0.008560,0.059574,0.972896,2.805953,782.06,41.00,highres
12.522530,66467168085,3.852048,-0.231989,-8.940854,-0.013002,0.026373,-0.005871,0.059574,0.972896,2.805953,782.05,41.00,highres
12.548069,66467188596,3.854489,-0.287586,-8.824437,-0.044867,0.021228,0.018376,0.059574,0.972896,2.805953,782.05,41.00,highres
12.554379,66467213376,3.856610,-0.248083,-8.916349,-0.013116,0.018110,0.019731,0.059574,0.972896,2.805953,782.05,41.00,highres
12.581884,66467235722,3.853678,-0.377379,-8.796316,-0.013776,-0.006917,0.019619,0.059574,0.972896,2.805953,782.05,41.00,highres
12.598469,66467253339,3.906476,-0.302557,-8.855655,0.009819,-0.008947,0.007017,0.059574,0.972896,2.805953,782.05,41.00,highres
12.617041,66467271403,4.049149,-0.360083,-8.909985,0.027803,-0.010775,0.020946,0.060147,0.968456,2.812992,782.05,41.00,highres
12.646806,66467296370,4.136922,-0.283321,-9.107547,0.015251,-0.000314,0.005712,0.055402,0.967919,2.801721,782.05,41.00,highres
12.656350,66467314136,4.011283,-0.203043,-9.069672,0.015456,0.016262,0.027260,0.055402,0.967919,2.801721,782.05,41.00,highres
12.681045,66467337047,3.906793,-0.569314,-8.952168,-0.019317,0.019700,0.033349,0.055402,0.967919,2.801721,782.06,41.00,highres
12.698361,66467348367,3.855413,-0.622759,-8.855300,-0.049416,-0.000125,0.007069,0.055402,0.967919,2.801721,782.06,41.00,highres
12.723477,66467370750,3.636353,-0.188231,-8.833755,-0.042382,-0.035475,-0.030330,0.055402,0.967919,2.801721,782.06,41.00,highres
12.746873,66467388126,3.697962,-0.092635,-8.961226,0.014029,0.002629,0.012820,0.055402,0.967919,2.801721,782.06,41.00,highres
12.766920,66467408462,4.040128,-0.368989,-8.911577,0.038769,0.042641,0.024426,0.062459,0.971014,2.810286,782.06,41.00,highres
12.778987,66467423745,4.141509,-0.348635,-8.856498,0.035097,0.026976,0.009552,0.071764,0.966923,2.829872,782.06,41.00,highres
12.798948,66467451048,3.952082,-0.257478,-8.958204,-0.030234,-0.062553,0.002069,0.071764,0.966923,2.829872,782.06,41.00,highres
12.816118,66467473787,3.837188,-0.156178,-9.092849,-0.016860,-0.014869,0.026235,0.071764,0.966923,2.829872,782.06,41.00,highres
12.847680,66467491061,3.785697,-0.292010,-8.795462,0.007615,0.058218,0.045501,0.071764,0.966923,2.829872,782.06,41.00,highres
12.853910,66467505981,3.967483,-0.653411,-8.606333,0.028385,0.040197,0.041225,0.071764,0.966923,2.829872,782.06,41.00,highres
12.885844,66467529251,3.970471,-0.402462,-8.851231,0.009753,-0.054182,-0.018945,0.071764,0.966923,2.829872,782.06,41.00,highres
12.897177,66467557179,3.839852,-0.092467,-9.186883,0.000558,-0.066410,0.002838,0.067923,0.969719,2.811126,782.06,41.00,highres
12.914820,66467574774,3.893563,-0.307819,-9.196609,0.017828,0.010406,0.033722,0.071576,0.965485,2.815498,782.05,41.00,highres
12.946882,66467596592,3.894057,-0.556585,-9.033044,-0.002225,0.037827,0.014567,0.071576,0.965485,2.815498,782.05,41.00,highres
12.965747,66467611017,4.077782,-0.461750,-8.961544,0.001290,0.004382,-0.010318,0.071576,0.965485,2.815498,782.05,41.00,highres
12.980264,66467636641,4.171402,-0.287461,-9.195607,0.006027,0.003179,-0.027923,0.071576,0.965485,2.815498,782.05,41.00,highres
12.997489,66467654094,4.027706,-0.183882,-9.064849,-0.006043,0.016977,-0.016530,0.071576,0.965485,2.815498,782.05,41.15,highres
13.015190,66467671471,3.804275,-0.154965,-8.751173,-0.000358,0.033446,0.017186,0.071576,0.965485,2.815498,782.05,41.15,highres
13.046503,66467687526,3.732778,-0.564835,-8.710099,0.025817,0.031365,0.039357,0.063876,0.966725,2.808542,782.05,41.15,highres
13.054267,66467710112,3.900482,-0.224009,-8.900496,0.064717,0.012120,-0.007678,0.072188,0.978485,2.799139,782.05,41.15,highres
13.079003,66467728567,4.766733,0.019922,-9.645897,0.211381,0.001492,0.077407,0.072188,0.978485,2.799139,782.05,41.30,highres
13.098048,66467746868,6.494920,-0.989883,-10.573693,0.444129,0.061459,0.259339,0.072188,0.978485,2.799139,782.05,41.30,highres
13.121411,66467776774,8.330775,-3.607672,-10.633776,0.426064,0.021842,0.141238,0.072188,0.978485,2.799139,782.05,41.30,highres
13.148226,66467796878,8.418132,-4.648276,-10.504257,-0.039193,-0.225767,-0.321799,0.072188,0.978485,2.799139,782.05,41.30,highres
13.164759,66467811412,8.535783,-3.820895,-10.174977,-0.174244,-0.307624,-0.669250,0.072188,0.978485,2.799139,782.06,41.30,highres
13.179061,66467832403,11.372036,-4.391634,-12.077009,1.148780,-0.294091,-1.127089,0.062989,0.985534,2.788683,782.06,41.30,highres
13.207675,66467852993,13.124617,-5.174309,-16.969267,2.340198,0.308850,-1.325121,0.048275,1.001047,2.733283,782.06,41.30,highres
13.214314,66467872793,10.361336,-4.323517,-13.935908,1.549011,0.902387,-1.127197,0.048275,1.001047,2.733283,782.06,41.30,highres
13.245544,66467889446,7.427808,-4.908152,-9.320498,0.707652,0.892427,-0.929426,0.048275,1.001047,2.733283,782.06,41.30,highres
13.254467,66467904492,6.386371,-6.901122,-6.654899,0.177374,0.838040,-0.995681,0.048275,1.001047,2.733283,782.06,41.30,highres
13.280005,66467928068,6.266387,-7.557117,-6.139624,-0.004960,0.907726,-1.625092,0.048275,1.001047,2.733283,782.06,41.30,highres
13.298857,66467954272,6.577586,-2.083343,-4.144567,-0.272635,1.590817,-2.902514,0.048275,1.001047,2.733283,782.06,41.30,highres
13.298857,66467968654,3.904828,0.693743,-2.078820,0.384525,1.686984,-2.898360,0.048275,1.001047,2.733283,782.06,41.30,highres
13.346980,66467994030,2.942951,5.308870,-0.138292,2.087745,1.010816,-1.742697,0.073447,0.881568,2.562405,782.06,41.30,highres
13.354149,66468013336,3.497831,1.520904,-0.119250,3.078128,0.185100,-0.979743,0.073447,0.881568,2.562405,782.06,41.30,highres
13.381546,66468034650,2.540300,-4.033159,-2.544767,3.043540,-1.692711,-0.608574,0.073447,0.881568,2.562405,782.06,41.30,highres
13.400163,66468051556,-0.051741,-6.518042,-4.010887,1.748945,-2.667327,-1.012482,0.073447,0.881568,2.562405,782.06,41.30,highres
13.425993,66468067149,-3.292100,-5.486528,-10.016819,0.295536,-2.913231,-1.986310,0.073447,0.881568,2.562405,782.06,41.30,highres
13.447606,66468087448,-7.071358,2.433163,-10.342077,-1.999633,-2.153084,-2.915555,0.073447,0.881568,2.562405,782.06,41.30,highres
13.465965,66468114626,-7.680232,7.397671,-8.137272,-1.600888,-1.436621,-1.793607,0.082899,0.823000,2.565676,782.06,41.30,highres
13.481535,66468129027,-6.635660,7.833858,-8.979249,-0.331829,-1.381455,-0.720668,0.087934,0.760274,2.629375,782.05,41.30,highres
13.499194,66468152535,-5.016493,3.169597,-11.033029,0.608835,-1.305643,0.622796,0.087934,0.760274,2.629375,782.05,41.30,highres
13.526771,66468174986,-3.208825,-0.374858,-15.156013,-0.078048,-1.004484,0.749452,0.087934,0.760274,2.629375,782.05,41.30,highres
13.549444,66468194338,-1.902487,1.204398,-14.393474,-1.848447,-0.773497,0.261185,0.087934,0.760274,2.629375,782.05,41.30,highres
13.554526,66468210063,-1.094051,2.703589,-12.286059,-2.151797,-0.308811,0.165248,0.087934,0.760274,2.629375,782.04,41.30,highres
13.578868,66468237371,1.707331,3.519710,-7.077756,-0.457273,0.411706,0.953147,0.087934,0.760274,2.629375,782.04,41.30,highres
13.600092,66468256236,2.968785,0.431951,-7.773980,0.346802,0.120523,1.235216,0.087183,0.764341,2.653185,782.04,41.30,highres
13.615168,66468267920,3.875301,-1.025215,-8.224477,0.591233,-0.183745,1.202538,0.091702,0.784282,2.642375,782.04,41.30,highres
13.647994,66468294715,3.017531,-1.317687,-9.016654,0.947766,-0.680173,0.665463,0.091702,0.784282,2.642375,782.04,41.30,highres
13.656547,66468313257,3.216705,-0.072022,-9.921034,1.078583,-0.580994,0.437153,0.091702,0.784282,2.642375,782.04,41.30,highres
13.679959,66468332688,4.729249,-0.052340,-11.420573,1.316489,-0.259591,0.325217,0.091702,0.784282,2.642375,782.04,41.30,highres
13.698120,66468355353,4.984791,-2.963632,-11.775373,0.319339,0.053490,0.278073,0.091702,0.784282,2.642375,782.04,41.30,highres
13.714425,66468374350,4.020875,-2.600543,-9.129537,-0.309537,-0.087466,0.236042,0.091702,0.784282,2.642375,782.04,41.30,highres
13.747331,66468390063,4.393802,-1.353660,-9.029420,-0.067389,-0.255927,0.190634,0.078373,0.787230,2.643927,782.04,41.30,highres
13.756059,66468412032,5.570008,-0.294723,-11.029442,0.536983,-0.095919,0.187796,0.062977,0.780145,2.651311,782.04,41.30,highres
13.779786,66468434463,5.508666,-1.888280,-11.533111,0.682449,0.477363,0.218877,0.062977,0.780145,2.651311,782.04,41.30,highres
13.798763,66468452905,5.105290,-3.282407,-10.975339,0.604692,0.926911,0.130413,0.062977,0.780145,2.651311,782.04,41.30,highres
13.814140,66468474792,4.383470,-2.740143,-8.881699,0.212231,1.161170,-0.183006,0.062977,0.780145,2.651311,782.04,41.30,highres
13.847689,66468492684,3.681999,-1.675967,-7.599658,0.124852,0.923341,-0.246680,0.062977,0.780145,2.651311,782.04,41.30,highres
13.853503,66468518701,3.493354,-1.260630,-6.889179,0.184770,0.340156,-0.191073,0.062977,0.780145,2.651311,782.04,41.30,highres
13.885603,66468527213,3.564688,-1.237846,-6.938888,0.245831,0.070164,-0.218445,0.062977,0.780145,2.651311,782.05,41.30,highres
13.897944,66468554825,4.045088,-0.919462,-8.887524,0.134828,-0.222702,-0.302239,0.087202,0.778103,2.603073,782.05,41.30,highres
13.913573,66468571690,4.161092,0.013045,-10.089030,0.120497,-0.112317,-0.214616,0.087202,0.778103,2.603073,782.05,41.30,highres
13.945953,66468592534,4.637400,-0.596517,-10.841978,0.520484,0.213070,0.072025,0.087202,0.778103,2.603073,782.05,41.30,highres
13.954267,66468615511,4.900500,-2.431623,-10.843940,0.357004,0.290617,-0.003267,0.087202,0.778103,2.603073,782.06,41.30,highres
13.979598,66468629906,4.554668,-2.668748,-10.382147,0.062661,0.281292,-0.144769,0.087202,0.778103,2.603073,782.06,41.30,highres
13.998762,66468655638,3.889501,-1.934819,-9.400257,0.008146,0.309388,-0.399195,0.087202,0.778103,2.603073,782.06,41.30,highres
14.019721,66468674614,2.973008,-0.161211,-10.376883,0.110655,0.330395,-0.251897,0.090560,0.775738,2.605576,782.06,41.30,highres
14.047803,66468693547,3.258963,0.885835,-10.079071,-0.114701,0.627884,0.056025,0.102347,0.787859,2.593575,782.06,41.30,highres
14.057975,66468714692,4.792861,0.232130,-7.775625,0.210092,1.228673,0.148057,0.102347,0.787859,2.593575,782.06,41.30,highres
14.079685,66468732713,4.350602,1.095602,-5.804407,1.294076,1.716401,0.144114,0.102347,0.787859,2.593575,782.06,41.30,highres
14.101353,66468752457,3.674412,2.228884,-6.335431,2.112772,1.797915,0.447220,0.102347,0.787859,2.593575,782.06,41.30,highres
14.126830,66468772667,3.791054,-0.172161,-6.871593,1.959113,1.356173,0.888058,0.102347,0.787859,2.593575,782.05,41.30,highres
14.148665,66468788292,4.982363,-3.986172,-5.720731,1.080067,0.603821,1.033148,0.102347,0.787859,2.593575,782.05,41.30,highres
14.165211,66468813274,5.184472,-7.862460,-6.154357,-0.748953,-1.616780,0.461848,0.102347,0.787859,2.593575,782.05,41.30,highres
14.182195,66468835377,4.290358,-7.088273,-10.474771,-1.571275,-2.320454,-0.361062,0.135057,0.798164,2.554663,782.05,41.30,highres
14.198253,66468852657,3.780593,-4.219749,-11.743336,-2.098621,-1.874318,-0.644160,0.135057,0.798164,2.554663,782.06,41.30,highres
14.215320,66468872517,1.465442,-2.849245,-10.688091,-2.512060,-1.092942,-0.704775,0.135057,0.798164,2.554663,782.06,41.30,highres
14.247930,66468897647,-0.809452,-0.744443,-8.699805,-2.366571,-0.614580,-0.888795,0.135057,0.798164,2.554663,782.06,41.30,highres
14.256067,66468914972,0.070602,1.722674,-10.039498,-1.617548,-0.328584,-0.543201,0.135057,0.798164,2.554663,782.06,41.30,highres
14.279997,66468932447,-0.138647,0.651547,-10.396511,-1.315127,0.087388,-0.043404,0.135057,0.798164,2.554663,782.06,41.30,highres
14.297743,66468953367,1.255637,-0.180250,-8.272924,-1.023579,0.242503,0.033141,0.120960,0.801988,2.610062,782.06,41.30,highres
14.308789,66468972750,2.672994,0.704744,-7.958908,-0.351323,0.136858,-0.110236,0.135111,0.818179,2.617607,782.06,41.30,highres
14.349030,66468987792,3.179323,0.915195,-8.262238,0.466356,0.213091,-0.234946,0.135111,0.818179,2.617607,782.06,41.30,highres
14.359387,66469008023,3.105393,-1.105829,-8.539186,1.297749,0.575963,-0.445965,0.135111,0.818179,2.617607,782.06,41.30,highres
14.379208,66469026995,2.122651,-1.501504,-8.702114,1.467570,0.918347,-0.525996,0.135111,0.818179,2.617607,782.06,41.30,highres
14.400490,66469045739,2.121519,0.043803,-9.699769,1.106989,1.077170,-0.207754,0.135111,0.818179,2.617607,782.06,41.30,highres
14.416233,66469068357,4.128628,1.490965,-9.722194,0.128269,1.238726,0.539683,0.135111,0.818179,2.617607,782.06,41.30,highres
14.447027,66469091713,6.699759,1.693728,-7.837871,-0.161918,1.523416,0.990758,0.104991,0.790658,2.608545,782.06,41.30,highres
14.465974,66469113072,8.849662,-0.171275,-5.811267,0.537317,1.719183,1.079050,0.105438,0.791552,2.566056,782.06,41.30,highres
14.481415,66469128373,10.016786,-1.793277,-6.167987,1.022297,1.483296,0.881630,0.105438,0.791552,2.566056,782.06,41.30,highres
14.497309,66469150711,8.839510,-2.071470,-6.659901,0.872221,0.830680,0.612197,0.105438,0.791552,2.566056,782.06,41.30,highres
14.515215,66469170522,6.529872,-3.770068,-6.607892,0.443998,0.252782,0.340880,0.105438,0.791552,2.566056,782.05,41.30,highres
14.548093,66469186703,4.495587,-2.833298,-6.291637,0.618144,-0.041412,-0.175799,0.105438,0.791552,2.566056,782.05,41.30,highres
14.556149,66469207828,4.057922,-3.236811,-8.046418,1.464877,-0.154588,-0.550002,0.105438,0.791552,2.566056,782.05,41.30,highres
14.579083,66469227957,5.542214,-3.227342,-9.341365,1.647834,-0.198542,-0.900263,0.105438,0.791552,2.566056,782.05,41.30,highres
14.598083,66469247707,4.962240,-1.340340,-7.974442,0.575931,-0.473465,-1.106992,0.088389,0.794113,2.537290,782.05,41.30,highres
14.615700,66469266775,5.434348,0.376993,-6.738737,-0.000980,-0.668053,-0.882768,0.088389,0.794113,2.537290,782.05,41.30,highres
14.645750,66469288540,5.928760,-0.673064,-6.241948,0.316999,-0.655246,-0.690325,0.088389,0.794113,2.537290,782.05,41.30,highres
14.666673,66469307832,5.942108,-1.319907,-6.511070,0.570213,-0.447258,-0.585850,0.088389,0.794113,2.537290,782.05,41.30,highres
14.680585,66469326414,4.696206,-1.039173,-6.860193,0.658737,-0.234426,-0.433117,0.088389,0.794113,2.537290,782.05,41.30,highres
14.698488,66469348509,4.260712,0.441112,-8.228268,0.325854,-0.169910,-0.041296,0.088389,0.794113,2.537290,782.05,41.30,highres
14.713688,66469373380,3.167268,-0.731494,-8.838606,-0.245539,-0.326215,0.201878,0.104469,0.772417,2.549063,782.05,41.30,highres
14.735873,66469398560,5.686874,-3.974946,-8.493309,-0.450404,-0.494497,0.121113,0.117054,0.779529,2.558750,782.05,41.30,highres
14.755393,66469408172,6.677546,-4.902944,-9.118218,-0.594776,-0.525644,-0.182764,0.117054,0.779529,2.558750,782.04,41.30,highres
14.780589,66469430574,5.496030,-3.505574,-8.214460,-0.521398,-0.449066,-0.749595,0.117054,0.779529,2.558750,782.04,41.30,highres
14.798644,66469453192,4.302408,-1.437987,-8.295160,0.105299,-0.232151,-0.604640,0.117054,0.779529,2.558750,782.04,41.30,highres
14.824081,66469476246,3.457291,-0.725743,-8.942765,0.334195,0.011151,-0.262954,0.117054,0.779529,2.558750,782.04,41.30,highres
14.847841,66469493817,2.761525,-0.432406,-9.252759,-0.138086,0.173733,-0.046796,0.117054,0.779529,2.558750,782.04,41.30,highres
14.862895,66469511759,3.140573,-0.576536,-8.097515,-0.601040,0.189815,0.155141,0.102252,0.763929,2.570848,782.04,41.30,highres
14.879261,66469528414,3.630936,-0.488495,-6.395616,-0.589796,-0.489061,0.164338,0.102522,0.763952,2.591041,782.04,41.30,highres
14.900404,66469547975,3.518341,0.232278,-7.438485,-0.517437,-1.597168,0.116611,0.102522,0.763952,2.591041,782.04,41.30,highres
14.914915,66469568142,3.877635,-0.424661,-7.312348,-0.505824,-1.929856,0.273549,0.102522,0.763952,2.591041,782.04,41.30,highres
14.948539,66469592172,3.793169,-1.293229,-8.251610,0.000201,-1.929563,0.406674,0.102522,0.763952,2.591041,782.04,41.30,highres
14.966560,66469608664,3.025741,-1.263088,-8.922075,0.300234,-1.757504,0.294434,0.102522,0.763952,2.591041,782.04,41.30,highres
14.981383,66469625909,2.431891,-0.428849,-9.049128,0.350773,-1.530599,0.217376,0.102522,0.763952,2.591041,782.04,41.30,highres
15.002480,66469650527,3.303281,-0.790595,-9.602300,0.526515,-1.409030,0.596467,0.099613,0.772342,2.615307,782.03,41.15,highres
15.014775,66469667909,3.065350,-2.424645,-11.450130,0.506909,-1.508098,0.720609,0.101541,0.764663,2.661409,782.03,41.15,highres
15.045452,66469686648,2.339313,-3.358035,-11.703657,0.009517,-1.289349,0.502623,0.101541,0.764663,2.661409,782.03,41.15,highres
15.065748,66469713634,1.791700,-2.986517,-10.551911,-0.022016,-0.888842,0.076148,0.101541,0.764663,2.661409,782.03,41.15,highres
15.080551,66469734213,1.596888,-2.484675,-10.018845,0.546084,-0.664469,-0.246722,0.101541,0.764663,2.661409,782.04,41.00,highres
15.098315,66469753712,0.853007,-1.447205,-10.132746,1.066386,-0.501164,-0.308841,0.101541,0.764663,2.661409,782.04,41.00,highres
15.113882,66469772159,1.099104,-1.276385,-10.226004,1.269646,-0.400797,-0.062071,0.101541,0.764663,2.661409,782.04,41.00,highres
15.145520,66469794129,1.587582,-2.432951,-10.589407,0.993653,-0.481819,0.180711,0.111331,0.781935,2.681179,782.04,41.00,highres
15.154398,66469805031,1.769878,-3.581785,-11.439462,0.584989,-0.541231,0.157426,0.112755,0.768160,2.689848,782.05,41.00,highres
15.180559,66469828432,1.198840,-2.898566,-11.646145,-1.114666,-0.707622,-0.167630,0.112755,0.768160,2.689848,782.05,41.00,highres
15.197656,66469853603,0.973016,-1.402782,-11.340738,-1.720253,-0.573957,-0.181025,0.112755,0.768160,2.689848,782.05,41.00,highres
15.225069,66469876404,0.910975,-0.830987,-10.723591,-1.251282,-0.059477,0.089182,0.112755,0.768160,2.689848,782.05,41.00,highres
15.247226,66469891386,0.858610,-0.755976,-10.802350,-0.654783,0.368611,0.179353,0.112755,0.768160,2.689848,782.05,41.00,highres
15.264247,66469916169,0.851719,-0.621599,-11.380106,0.252882,1.070310,0.189284,0.112755,0.768160,2.689848,782.05,41.00,highres
15.280284,66469930988,1.176822,-1.819150,-11.182620,0.402383,1.468581,0.237829,0.108701,0.770894,2.698769,782.05,41.00,highres
15.302216,66469953909,3.013008,-4.807071,-10.408281,-0.391218,1.603349,-0.054744,0.108728,0.779130,2.687792,782.05,41.00,highres
15.308207,66469974211,2.914020,-4.267562,-9.764892,-1.284678,0.954869,-0.843494,0.108728,0.779130,2.687792,782.06,41.00,highres
15.308207,66469993680,1.835598,-2.607274,-11.954824,-1.688678,0.846995,-1.362695,0.108728,0.779130,2.687792,782.06,41.00,highres
15.353751,66470013907,1.543185,-0.604864,-11.359596,-1.292724,1.418621,-1.342087,0.108728,0.779130,2.687792,782.06,41.00,highres
15.386148,66470034798,1.371491,0.231098,-9.505651,-0.558091,1.892121,-1.107943,0.108728,0.779130,2.687792,782.06,41.00,highres
15.398177,66470051861,1.671132,1.041631,-7.752532,-0.273707,1.815296,-0.842476,0.108728,0.779130,2.687792,782.06,41.00,highres
15.425919,66470069508,2.130961,1.564213,-6.919752,-0.325284,1.413504,-0.507039,0.108728,0.779130,2.687792,782.06,41.00,highres
15.447007,66470094309,2.711402,2.209036,-6.633988,-0.650294,0.659449,-0.044492,0.091605,0.729327,2.631534,782.06,41.00,highres
15.464841,66470115971,3.470793,1.538695,-6.359444,-0.574123,0.118834,0.263679,0.091605,0.729327,2.631534,782.06,41.00,highres
15.479628,66470133690,3.553064,1.357110,-6.724105,-0.228414,-0.088717,0.371736,0.091605,0.729327,2.631534,782.05,41.00,highres
15.502576,66470153998,3.792963,0.910680,-7.040099,0.255441,-0.185405,0.448042,0.091605,0.729327,2.631534,782.05,41.00,highres
15.514408,66470174331,3.666728,0.446249,-7.585059,0.583957,-0.280759,0.444354,0.091605,0.729327,2.631534,782.05,41.00,highres
15.547542,66470196015,3.303209,1.110211,-9.309950,0.441995,-0.365867,0.396741,0.091605,0.729327,2.631534,782.05,41.00,highres
15.553997,66470215146,3.609041,0.586932,-9.820724,0.092426,-0.381801,0.547171,0.086165,0.745844,2.620862,782.05,41.00,highres
15.579421,66470231459,3.669461,-0.637966,-9.417855,-0.275928,-0.414769,0.628720,0.074027,0.772988,2.634723,782.05,41.00,highres
15.597406,66470251124,3.614331,-1.033251,-9.036354,-0.623068,-0.473273,0.480933,0.047516,0.667086,2.192499,782.05,41.00,highres
15.616394,66470271854,3.603923,-0.538186,-8.935598,-0.534223,-0.410258,0.266342,0.047516,0.667086,2.192499,782.05,41.00,highres
15.649377,66470296105,3.376442,0.256123,-9.087589,-0.052835,-0.171434,0.203713,0.048103,0.666283,2.192616,782.04,41.00,highres
15.654249,66470311971,3.502223,0.291282,-9.172626,0.395785,0.088218,0.295574,0.048103,0.666283,2.192616,782.04,41.00,highres
15.682147,66470334636,3.907529,-0.819285,-9.726846,0.723557,0.373243,0.288740,0.048103,0.666283,2.192616,782.04,41.00,highres
15.698250,66470351485,3.993837,-1.192312,-9.848874,0.550837,0.525355,0.151720,0.059795,0.659113,2.190633,782.04,41.00,highres
15.717579,66470372974,3.975058,-1.044625,-9.410838,0.007582,0.489856,-0.002520,0.060989,0.647801,2.197596,782.05,41.00,highres
15.744483,66470396705,3.699736,-0.209799,-9.036161,-0.203949,0.382012,0.059701,0.060989,0.647801,2.197596,782.05,41.00,highres
15.754637,66470411624,3.944283,-0.360393,-8.759873,-0.189285,0.390943,0.175860,0.060989,0.647801,2.197596,782.05,41.00,highres
15.780077,66470427734,4.375054,-1.033982,-8.070151,-0.056252,0.373794,0.204547,0.061923,0.646213,2.197678,782.05,41.00,highres
15.798995,66470451509,4.508242,-1.512932,-8.151269,0.192751,0.142443,-0.074232,0.061923,0.646213,2.197678,782.04,41.00,highres
15.814401,66470469034,4.151206,-0.867593,-9.323463,0.208565,0.061228,-0.291336,0.061923,0.646213,2.197678,782.04,41.00,highres
15.845359,66470487234,3.940419,-0.227514,-9.634577,0.122097,0.154416,-0.345957,0.061928,0.657652,2.175296,782.04,41.00,highres
15.854597,66470508043,4.225223,0.011339,-8.950319,-0.065063,0.376135,-0.205379,0.063213,0.672103,2.174512,782.04,41.00,highres
15.878970,66470524641,4.096265,-0.172539,-8.269837,-0.255555,0.340693,-0.097578,0.063213,0.672103,2.174512,782.04,41.00,highres
15.897562,66470547936,3.963153,0.108732,-8.070793,-0.471657,0.093825,-0.039867,0.063213,0.672103,2.174512,782.04,41.00,highres
15.914376,66470562360,3.988359,0.475881,-8.241714,-0.468284,0.019842,0.021287,0.063213,0.672103,2.174512,782.04,41.00,highres
15.948092,66470589108,4.148812,0.250452,-8.022270,-0.158873,0.079673,0.182252,0.063801,0.670493,2.174452,782.04,41.00,highres
15.955048,66470606820,4.445463,-0.491695,-8.175752,0.131168,0.093118,0.169550,0.063801,0.670493,2.174452,782.04,41.00,highres
15.979663,66470627255,4.306766,-0.738664,-9.122523,0.288035,0.007820,-0.035112,0.059844,0.658201,2.166715,782.04,41.00,highres
15.997714,66470649822,3.927358,-0.363635,-10.030918,0.185786,0.035943,-0.236842,0.051628,0.647565,2.164582,782.04,41.00,highres
16.025658,66470669279,3.713038,0.162342,-9.764567,-0.077015,0.189011,-0.206254,0.051628,0.647565,2.164582,782.04,41.00,highres
16.046264,66470689690,3.735830,0.366565,-9.031382,-0.241589,0.243868,-0.062025,0.051628,0.647565,2.164582,782.04,41.00,highres
16.064208,66470705255,3.849805,0.325977,-8.508496,-0.244558,0.228792,0.029182,0.051628,0.647565,2.164582,782.04,41.00,highres
16.079301,66470727273,4.092717,0.022846,-8.215632,-0.095945,0.150533,0.081462,0.051880,0.645909,2.164426,782.04,41.00,highres
16.098993,66470747839,4.217867,0.033296,-8.428572,-0.043411,0.019196,0.056111,0.051880,0.645909,2.164426,782.04,41.00,highres
16.114233,66470761878,4.156567,0.029284,-8.680438,-0.066319,-0.061438,0.056417,0.062911,0.657052,2.157981,782.04,41.00,highres
16.133393,66470784686,4.140668,-0.007975,-9.028596,-0.120828,-0.109086,0.094422,0.067199,0.643565,2.166398,782.04,41.00,highres
16.155264,66470802437,4.128408,0.089509,-9.056111,-0.203644,-0.081345,0.118755,0.067199,0.643565,2.166398,782.04,41.00,highres
16.181652,66470817870,4.154384,0.103416,-8.660936,-0.236750,-0.043112,0.125749,0.067199,0.643565,2.166398,782.04,41.00,highres
16.197689,66470844603,4.430593,-0.100653,-8.157378,-0.069868,0.018040,0.103901,0.067199,0.643565,2.166398,782.04,41.00,highres
16.215001,66470867718,4.512358,-0.276757,-8.353175,0.128204,-0.035401,0.027364,0.067199,0.643565,2.166398,782.04,41.00,highres
16.247352,66470889664,4.189314,-0.057360,-9.160794,0.086981,-0.139096,-0.038395,0.067194,0.641825,2.166208,782.04,41.00,highres
16.254231,66470905358,3.978119,0.238937,-9.373985,-0.029447,-0.110403,-0.022632,0.062408,0.659223,2.156924,782.04,41.00,highres
16.280594,66470929545,3.863914,0.339033,-9.087644,-0.035614,0.030852,0.077332,0.070974,0.656636,2.146962,782.05,41.00,highres
16.298122,66470944935,4.115294,0.036180,-8.775213,-0.051807,0.049739,0.119719,0.070974,0.656636,2.146962,782.05,41.00,highres
16.312997,66470969752,4.388222,-0.332512,-8.632764,-0.205199,-0.098446,0.118948,0.070974,0.656636,2.146962,782.05,41.00,highres
16.312997,66470989567,4.321587,-0.517922,-8.805006,-0.199926,-0.155357,0.080851,0.070974,0.656636,2.146962,782.05,41.00,highres
16.354144,66471011734,4.340025,-0.601465,-8.948217,-0.044861,-0.096156,-0.056228,0.070884,0.654842,2.146747,782.04,41.00,highres
16.379558,66471032120,4.053048,-0.127816,-9.203758,0.019581,-0.054365,-0.173711,0.070884,0.654842,2.146747,782.04,41.00,highres
16.397395,66471053036,3.787303,0.456344,-9.348600,0.056463,0.057386,-0.138461,0.062320,0.656885,2.161227,782.04,41.00,highres
16.415582,66471067400,3.794564,0.581125,-9.180313,0.034205,0.121962,-0.021158,0.059043,0.634862,2.159256,782.04,41.00,highres
16.445979,66471095473,4.027340,0.192881,-8.725550,-0.122748,0.037352,0.109382,0.059043,0.634862,2.159256,782.04,41.00,highres
16.454537,66471110775,4.060799,-0.011553,-8.613313,-0.230981,-0.072064,0.093989,0.059043,0.634862,2.159256,782.04,41.00,highres
16.479973,66471135929,3.962633,0.188301,-8.935334,-0.134564,-0.129889,0.028817,0.059043,0.634862,2.159256,782.04,41.00,highres
16.505959,66471152873,3.853141,0.332530,-9.375142,-0.060756,-0.060242,0.028466,0.058717,0.633075,2.158953,782.04,41.00,highres
16.526493,66471172410,4.051688,0.248060,-9.263193,0.004137,0.093779,0.058225,0.058717,0.633075,2.158953,782.04,41.00,highres
16.547981,66471188071,4.099874,0.008451,-8.639256,-0.009406,0.108970,0.062648,0.062724,0.652893,2.164023,782.04,41.00,highres
16.554672,66471207597,4.013409,0.055968,-8.377819,-0.042068,-0.003605,0.006699,0.076901,0.654913,2.154956,782.04,41.00,highres
16.579719,66471227858,3.925239,0.443147,-8.846989,-0.005848,-0.085856,-0.026066,0.076901,0.654913,2.154956,782.04,41.00,highres
16.599099,66471252575,4.050654,0.548517,-9.220517,0.039965,0.007912,0.087860,0.076901,0.654913,2.154956,782.05,41.00,highres
16.614232,66471273530,4.137187,0.140696,-9.024838,0.049652,0.090004,0.134285,0.076901,0.654913,2.154956,782.05,41.00,highres
16.646026,66471293205,4.200367,-0.325773,-8.778443,0.030011,0.096449,0.076120,0.076462,0.653134,2.154591,782.05,41.00,highres
16.653721,66471313012,4.135644,-0.209215,-8.571715,-0.028755,0.023492,-0.024846,0.076462,0.653134,2.154591,782.05,41.00,highres
16.679668,66471332309,4.210858,0.164732,-8.682746,-0.050821,-0.038594,-0.042796,0.061340,0.657844,2.161139,782.06,41.00,highres
16.700793,66471353087,4.211608,0.269076,-8.772302,-0.000718,-0.031196,-0.009912,0.078276,0.656283,2.167146,782.06,41.00,highres
16.714211,66471372767,4.087832,0.144251,-8.852022,0.016902,-0.028555,-0.000062,0.078276,0.656283,2.167146,782.06,41.00,highres
16.748033,66471392526,3.911587,0.112118,-8.845899,-0.053469,-0.080150,0.009095,0.078276,0.656283,2.167146,782.06,41.00,highres
16.754734,66471412913,3.882518,0.071641,-8.921243,-0.125373,-0.124859,0.039586,0.078276,0.656283,2.167146,782.04,41.00,highres
16.782009,66471435535,4.083686,0.122165,-9.129990,-0.098033,-0.079600,0.053423,0.077683,0.654477,2.166758,782.04,41.00,highres
16.799047,66471457544,4.177110,0.111761,-9.195129,0.041503,0.038638,0.007743,0.077683,0.654477,2.166758,782.04,41.00,highres
16.823418,66471467631,4.130738,0.125683,-9.060786,0.097081,0.093745,-0.019353,0.065642,0.652531,2.159011,782.04,41.00,highres
16.847580,66471493052,3.942351,0.031451,-8.773387,0.114588,0.103567,-0.036733,0.057880,0.658038,2.175198,782.04,41.00,highres
16.860078,66471512544,4.045866,-0.016491,-8.729727,-0.059606,-0.028428,-0.018742,0.057880,0.658038,2.175198,782.04,41.00,highres
16.880090,66471532745,4.000136,0.135488,-9.090324,-0.182570,-0.112041,0.028945,0.057504,0.657135,2.174986,782.04,41.00,highres
16.900111,66471555455,4.109070,0.184231,-9.198634,-0.108769,-0.002591,0.032605,0.057504,0.657135,2.174986,782.04,41.00,highres
16.914918,66471573763,4.022787,0.203380,-9.004103,0.042993,0.107224,0.002895,0.057122,0.656237,2.174762,782.04,41.00,highres
16.933856,66471595293,3.951235,0.161834,-8.725095,0.132634,0.129570,-0.028123,0.057122,0.656237,2.174762,782.04,41.00,highres
16.955411,66471605845,3.947018,0.194861,-8.603082,0.096542,0.088770,-0.029551,0.057122,0.656237,2.174762,782.04,41.00,highres
16.979917,66471630442,3.945930,0.252357,-8.693455,-0.016053,-0.052378,0.023434,0.053042,0.645642,2.166848,782.04,41.00,highres
16.997194,66471652842,4.134416,0.022113,-9.085234,-0.128065,-0.116668,0.061483,0.053042,0.645642,2.166848,782.04,41.00,highres
17.014808,66471675832,4.239655,-0.038409,-9.161541,-0.148371,-0.065188,-0.010415,0.053042,0.645642,2.166848,782.04,41.00,highres
17.046371,66471692795,3.983677,0.192126,-9.140314,-0.030760,0.027229,-0.066830,0.053042,0.645642,2.166848,782.04,41.00,highres
17.053980,66471712842,3.941111,0.348656,-8.990580,0.083348,0.160355,-0.074639,0.052616,0.644748,2.166610,782.04,41.00,highres
17.085066,66471732960,3.981734,0.466304,-8.424698,0.048605,0.146060,-0.032799,0.052616,0.644748,2.166610,782.03,41.00,highres
17.097834,66471750694,4.203226,0.471164,-8.375575,-0.043084,0.039948,0.038954,0.061418,0.647764,2.161725,782.03,41.00,highres
17.126821,66471766727,4.256546,0.303122,-8.496302,-0.090989,-0.058689,0.104793,0.076496,0.657254,2.169218,782.03,41.00,highres
17.146613,66471787916,4.196695,0.096032,-8.758456,-0.015708,-0.069555,0.099894,0.076046,0.656362,2.168973,782.03,41.00,highres
17.166744,66471807541,4.086380,0.052467,-8.948482,0.087916,-0.003373,0.021568,0.076046,0.656362,2.168973,782.03,41.00,highres
17.180645,66471828690,4.165571,-0.034446,-8.829081,0.056579,0.021619,-0.003346,0.076046,0.656362,2.168973,782.03,41.00,highres
17.205675,66471850701,4.190134,0.165043,-8.831197,-0.045304,-0.033269,0.003306,0.075571,0.655469,2.168724,782.03,41.00,highres
17.215259,66471871194,4.110561,0.280965,-8.863819,-0.044137,-0.039473,0.011227,0.075571,0.655469,2.168724,782.03,41.00,highres
17.246230,66471893620,4.014022,0.124899,-8.730299,0.060171,-0.006432,0.000170,0.064139,0.645729,2.158364,782.04,41.00,highres
17.254184,66471913894,4.091167,-0.104053,-8.654693,0.017323,-0.078832,-0.031612,0.047116,0.651395,2.168529,782.04,41.00,highres
17.283239,66471937240,4.016073,0.151135,-9.160240,-0.036801,-0.135125,-0.062657,0.047116,0.651395,2.168529,782.04,41.00,highres
17.298734,66471950648,3.923767,0.355792,-9.412045,-0.026622,-0.062931,-0.051434,0.047116,0.651395,2.168529,782.04,41.00,highres
17.314887,66471973395,3.727451,0.516091,-9.315608,0.043007,0.082040,-0.018484,0.047116,0.651395,2.168529,782.04,41.00,highres
17.314887,66471995724,3.836586,0.411090,-8.882630,0.009561,0.056782,0.037746,0.046563,0.650497,2.168273,782.04,41.00,highres
17.356074,66472011354,3.942103,0.331413,-8.867937,-0.046788,-0.012310,0.091695,0.046563,0.650497,2.168273,782.04,41.00,highres
17.381587,66472033293,4.142751,-0.065704,-8.998364,-0.051902,-0.014888,0.103302,0.058464,0.645477,2.162041,782.04,41.00,highres
17.397996,66472051156,4.122107,-0.189223,-8.887082,-0.074812,0.000673,0.032664,0.060590,0.661616,2.169050,782.05,41.00,highres
17.416123,66472074162,3.897285,0.307623,-8.912333,-0.063520,-0.021552,-0.033709,0.060590,0.661616,2.169050,782.05,41.00,highres
17.446947,66472096467,3.909402,0.664631,-8.908087,0.003309,0.031148,0.014535,0.060590,0.661616,2.169050,782.05,41.00,highres
17.455116,66472111183,4.067917,0.338402,-8.767590,0.043670,0.050868,0.085559,0.060023,0.660739,2.168774,782.05,41.00,highres
17.481075,66472128227,4.202042,-0.101716,-8.720854,0.003910,0.012087,0.090341,0.060023,0.660739,2.168774,782.04,41.00,highres
17.499092,66472154241,4.210470,-0.133034,-8.830782,-0.062687,-0.064928,-0.004723,0.060023,0.660739,2.168774,782.04,41.00,highres
17.514507,66472168406,4.084857,0.156974,-8.965412,-0.015430,-0.034114,-0.052125,0.060023,0.660739,2.168774,782.04,41.00,highres
17.546808,66472193752,3.954144,0.427098,-8.925231,0.079451,0.058006,-0.027719,0.053381,0.635717,2.155908,782.04,41.00,highres
17.554790,66472213665,4.057668,0.147499,-8.868684,0.075693,0.061466,0.042955,0.053381,0.635717,2.155908,782.04,41.00,highres
17.579028,66472233634,4.192857,-0.119876,-8.923086,-0.017087,0.012408,0.023316,0.053381,0.635717,2.155908,782.04,41.00,highres
17.599128,66472256597,4.180917,-0.076811,-8.861551,-0.039998,0.002958,-0.061068,0.053381,0.635717,2.155908,782.04,41.00,highres
17.614600,66472271248,3.986014,0.233693,-8.832671,-0.004635,0.016796,-0.096953,0.052798,0.634843,2.155631,782.04,41.00,highres
17.646264,66472293718,3.847361,0.580325,-8.909285,0.036811,0.025628,-0.055370,0.052798,0.634843,2.155631,782.05,41.00,highres
17.661618,66472315996,3.814667,0.570480,-9.020865,0.013605,0.021026,0.023682,0.047558,0.648334,2.162963,782.05,41.00,highres
17.681370,66472327052,3.872744,0.474129,-8.966020,-0.017932,0.026241,0.053530,0.055483,0.652310,2.176549,782.05,41.00,highres
17.697985,66472353474,4.041219,0.223974,-8.662829,-0.036093,-0.009637,0.084775,0.054872,0.651435,2.176271,782.05,41.00,highres
17.715061,66472366478,4.151226,0.096795,-8.621610,-0.034692,-0.047579,0.066038,0.054872,0.651435,2.176271,782.05,41.00,highres
17.746966,66472395993,4.026333,0.239006,-8.920683,-0.041621,-0.098985,-0.001601,0.054872,0.651435,2.176271,782.05,41.00,highres
17.755155,66472411595,3.947948,0.346871,-9.186085,0.012481,-0.055149,0.023758,0.054246,0.650582,2.175972,782.05,41.00,highres
17.778849,66472427085,4.026989,0.120444,-9.209162,0.041477,0.018684,0.055358,0.054246,0.650582,2.175972,782.05,41.00,highres
17.797581,66472446991,4.068364,0.009845,-8.934043,0.013490,0.083372,0.051615,0.051329,0.647019,2.162003,782.05,41.00,highres
17.814609,66472467088,4.090197,0.086509,-8.473638,0.040699,0.071942,0.009178,0.056595,0.650096,2.159208,782.05,41.00,highres
17.846858,66472488676,3.884853,0.371880,-8.553775,0.063008,-0.027919,-0.036968,0.056595,0.650096,2.159208,782.05,41.00,highres
17.854224,66472508612,3.841544,0.477968,-9.240593,0.078843,-0.113197,0.011010,0.056595,0.650096,2.159208,782.05,41.00,highres
17.880424,66472528187,3.953852,0.051876,-9.734266,0.010922,-0.107206,0.108791,0.056595,0.650096,2.159208,782.05,41.00,highres
17.901816,66472544429,4.119199,-0.177019,-9.394664,-0.096377,-0.019709,0.141394,0.055954,0.649229,2.158926,782.05,41.00,highres
17.915273,66472559583,4.192617,-0.282614,-8.769226,-0.074191,0.053820,0.094006,0.055954,0.649229,2.158926,782.05,41.00,highres
17.948856,66472581147,4.102127,-0.035643,-8.636356,0.108676,0.116069,-0.032209,0.051071,0.638789,2.156331,782.05,41.00,highres
17.953572,66472601172,3.974066,0.335922,-8.797466,0.160905,0.099578,-0.114372,0.053768,0.650001,2.149390,782.05,41.00,highres
17.980562,66472611192,3.895632,0.596390,-8.734513,0.128423,0.071373,-0.120938,0.053768,0.650001,2.149390,782.05,41.00,highres
17.998723,66472641996,3.982422,0.318683,-8.538197,-0.042819,-0.020763,0.060946,0.053768,0.650001,2.149390,782.05,41.00,highres
18.019857,66472671256,3.933185,0.043258,-8.618505,-0.025886,-0.082458,0.160913,0.053768,0.650001,2.149390,782.05,41.00,highres
18.047354,66472692070,3.944867,-0.112254,-9.189839,0.115196,-0.129916,0.105640,0.053768,0.650001,2.149390,782.05,41.00,highres
18.054834,66472714063,3.851756,-0.127280,-9.772692,0.059568,-0.108516,0.037807,0.053103,0.649160,2.149087,782.05,41.00,highres
18.084338,66472732448,3.769210,-0.102056,-9.969223,-0.056902,0.001123,-0.004605,0.047116,0.637092,2.154232,782.05,41.00,highres
18.098441,66472749583,3.899826,0.063712,-9.260019,-0.047400,0.138674,-0.027936,0.051765,0.650470,2.166917,782.05,41.00,highres
18.114319,66472767003,3.896546,0.234335,-8.754583,0.034510,0.184048,-0.046681,0.051765,0.650470,2.166917,782.04,41.00,highres
18.147100,66472791556,3.904328,0.412626,-8.686057,0.093541,0.164163,-0.037231,0.051103,0.649626,2.166622,782.04,41.00,highres
18.154650,66472807616,3.902628,0.569932,-8.638883,0.034140,0.126039,0.028817,0.051103,0.649626,2.166622,782.04,41.00,highres
18.180429,66472829479,4.145776,0.478854,-8.432960,-0.043937,0.058810,0.144836,0.051103,0.649626,2.166622,782.04,41.00,highres
18.198285,66472847134,4.441812,-0.026567,-8.311742,-0.070138,0.000264,0.202083,0.051103,0.649626,2.166622,782.04,41.00,highres
18.218268,66472872857,4.588006,-0.650940,-8.263940,-0.058807,-0.091408,0.145963,0.052839,0.635006,2.150507,782.04,41.00,highres
18.246430,66472897211,4.400785,-0.547682,-9.007872,-0.025983,-0.130353,-0.011369,0.048814,0.621676,2.157586,782.04,41.00,highres
18.261055,66472911675,4.269438,-0.119590,-9.342226,-0.024170,-0.040406,-0.070069,0.048814,0.621676,2.157586,782.04,41.00,highres
18.280602,66472934891,4.082484,0.188363,-9.003808,-0.015173,0.091936,-0.037017,0.048112,0.620842,2.157284,782.04,41.00,highres
18.299747,66472954810,4.120170,0.117862,-8.714491,0.031731,0.115375,0.041340,0.048112,0.620842,2.157284,782.04,41.00,highres
18.315138,66472972197,4.302205,-0.352265,-8.876998,-0.017369,0.061578,0.055192,0.048112,0.620842,2.157284,782.04,41.00,highres
18.315138,66472991855,4.390651,-0.335851,-9.040573,-0.094119,0.040410,-0.011307,0.047465,0.620027,2.156977,782.04,41.00,highres
18.356079,66473014488,4.203062,-0.056690,-8.782399,0.002603,0.119837,-0.071812,0.050619,0.636061,2.155921,782.04,41.00,highres
18.380527,66473029627,4.079385,0.117060,-8.674835,0.112775,0.152813,-0.082133,0.038861,0.634125,2.138311,782.04,41.00,highres
18.399189,66473046761,4.106916,0.198978,-8.718952,0.152513,0.129606,-0.057479,0.038138,0.633293,2.138013,782.04,41.00,highres
18.415485,66473074829,4.163564,0.104587,-8.788135,0.037593,0.058965,0.002598,0.038138,0.633293,2.138013,782.04,41.00,highres
18.446257,66473091857,4.158737,0.107839,-8.602633,-0.078729,-0.008516,0.011936,0.038138,0.633293,2.138013,782.04,41.00,highres
18.454290,66473112842,4.185677,0.038832,-8.474266,-0.097440,-0.061798,0.000523,0.037370,0.632497,2.137683,782.04,41.00,highres
18.486329,66473131946,4.158488,0.027787,-8.798162,-0.049362,-0.089947,-0.026741,0.037370,0.632497,2.137683,782.04,41.00,highres
18.500374,66473149724,4.080640,0.168785,-9.183608,-0.023409,-0.051968,-0.069961,0.049823,0.639354,2.147506,782.04,41.00,highres
18.526133,66473174933,4.019516,0.469539,-9.060863,0.023254,0.078306,-0.046467,0.052803,0.643728,2.142923,782.04,41.00,highres
18.546427,66473189066,3.912993,0.573655,-8.650721,0.068659,0.094090,0.008706,0.052803,0.643728,2.142923,782.04,41.00,highres
18.565753,66473214124,4.195039,0.143577,-8.587898,0.008212,0.009047,0.109127,0.052803,0.643728,2.142923,782.04,41.00,highres
18.580252,66473234413,4.252340,-0.099839,-8.535017,-0.089642,-0.110228,0.087612,0.052803,0.643728,2.142923,782.04,41.00,highres
18.603983,66473251977,4.237339,0.062361,-8.703562,-0.088068,-0.131136,0.055771,0.052061,0.642944,2.142594,782.04,41.00,highres
18.615143,66473272299,4.054274,0.148128,-9.003501,0.048197,-0.063205,0.042611,0.052061,0.642944,2.142594,782.04,41.00,highres
18.648757,66473287262,3.956259,-0.024870,-9.316537,0.111943,0.031136,0.046996,0.046410,0.628712,2.145389,782.04,41.00,highres
18.654842,66473310091,4.239445,-0.230884,-9.134624,0.098362,0.125261,0.048046,0.057795,0.635304,2.141284,782.04,41.00,highres
18.682505,66473328472,4.226579,-0.101932,-8.825527,0.026429,0.088329,0.016308,0.057047,0.634504,2.140973,782.04,41.00,highres
18.699001,66473347534,4.164374,0.031391,-8.717755,-0.022922,0.024475,0.010430,0.057047,0.634504,2.140973,782.04,41.00,highres
18.725634,66473367118,4.050473,0.145371,-8.724689,-0.056262,-0.043656,0.024892,0.057047,0.634504,2.140973,782.04,41.00,highres
18.746161,66473387038,4.019449,0.199923,-9.145851,-0.005255,-0.037852,0.057268,0.057047,0.634504,2.140973,782.04,41.00,highres
18.763976,66473407153,4.274170,-0.149746,-9.133172,0.071712,0.084017,0.082617,0.056304,0.633713,2.140661,782.03,41.00,highres
