t_wall_s,t_boot_us,ax,ay,az,gx,gy,gz,mx,my,mz,abs_pressure,temperature,source
1.256566,16154735320,-5.186251,0.972356,-8.224020,-0.002357,0.000693,0.001200,0.292947,0.986171,2.846757,780.06,42.30,highres
1.256566,16154740981,-5.174678,0.979863,-8.227064,-0.002840,-0.000783,-0.000233,0.292947,0.986171,2.846757,780.06,42.30,highres
1.256566,16154755643,-5.178056,0.980537,-8.222726,-0.002917,0.000391,0.000455,0.292947,0.986171,2.846757,780.06,42.30,highres
1.256566,16154765324,-5.176785,0.969792,-8.213817,-0.000608,-0.000583,0.000589,0.292947,0.986171,2.846757,780.06,42.30,highres
1.256566,16154775347,-5.183708,0.972195,-8.226094,-0.001219,0.000028,-0.000022,0.292947,0.986171,2.846757,780.06,42.30,highres
1.256566,16154791118,-5.181915,0.986704,-8.235616,-0.002383,0.000047,0.001792,0.293613,0.998330,2.843911,780.06,42.30,highres
1.256566,16154806026,-5.182901,0.973878,-8.218948,-0.000947,0.000559,0.000928,0.293613,0.998330,2.843911,780.06,42.30,highres
1.256566,16154811733,-5.182968,0.972681,-8.218951,-0.000298,0.000789,0.001195,0.293613,0.998330,2.843911,780.06,42.30,highres
1.256566,16154815457,-5.185884,0.974356,-8.217008,-0.000913,0.001088,0.000266,0.293613,0.998330,2.843911,780.06,42.30,highres
1.256566,16154831158,-5.170799,0.976272,-8.228262,0.001225,0.001895,-0.000056,0.293613,0.998330,2.843911,780.06,42.30,highres
1.256566,16154836600,-5.166490,0.974118,-8.241070,0.000919,0.002471,-0.000938,0.293613,0.998330,2.843911,780.06,42.30,highres
1.256566,16154852156,-5.180377,0.973878,-8.233049,0.000234,0.001249,-0.000633,0.293613,0.998330,2.843911,780.06,42.30,highres
1.256566,16154856190,-5.178819,0.974958,-8.244485,-0.000608,0.000333,-0.000633,0.295881,0.994988,2.848165,780.06,42.30,highres
1.256566,16154865700,-5.176785,0.977469,-8.229459,0.000614,0.000552,-0.000400,0.295881,0.994988,2.848165,780.06,42.30,highres
1.257337,16154876493,-5.169603,0.982257,-8.223474,-0.000302,0.000900,-0.000022,0.295881,0.994988,2.848165,780.06,42.30,highres
1.257337,16154891574,-5.173194,0.983454,-8.224670,0.000309,-0.000166,0.000061,0.295881,0.994988,2.848165,780.06,42.30,highres
1.257337,16154895606,-5.182122,0.980511,-8.226614,-0.000302,0.000638,-0.000327,0.295881,0.994988,2.848165,780.06,42.30,highres
1.257337,16154905816,-5.175391,0.963696,-8.226353,0.001225,0.000638,0.000589,0.295881,0.994988,2.848165,780.06,42.30,highres
1.257337,16154915708,-5.173951,0.976517,-8.229579,0.000215,0.002259,0.001200,0.295881,0.994988,2.848165,780.06,42.30,highres
1.257337,16154923969,-5.174107,0.969516,-8.225584,-0.000495,0.003050,0.000010,0.283927,0.990696,2.844887,780.06,42.30,highres
1.257337,16154933186,-5.173895,0.963534,-8.229708,0.000309,0.001249,-0.001244,0.283927,0.990696,2.844887,780.06,42.30,highres
1.257337,16154944509,-5.173520,0.962667,-8.224886,0.000003,0.002653,-0.001244,0.283927,0.990696,2.844887,780.06,42.30,highres
1.257337,16154948285,-5.184741,0.965181,-8.229036,-0.000708,0.001657,-0.000938,0.283927,0.990696,2.844887,780.06,42.30,highres
1.257337,16154955626,-5.181574,0.970887,-8.223924,-0.002135,0.000333,-0.000938,0.283927,0.990696,2.844887,780.06,42.30,highres
1.257337,16154981188,-5.171298,0.969137,-8.227089,-0.001581,-0.000583,0.000774,0.283927,0.990696,2.844887,780.06,42.30,highres
1.257337,16154991679,-5.173558,0.981750,-8.219193,-0.001219,0.000241,0.001163,0.283927,0.990696,2.844887,780.06,42.30,highres
1.257337,16155001491,-5.186886,0.975979,-8.219271,0.000156,0.002012,0.002116,0.289004,0.994880,2.843460,780.06,42.30,highres
1.257337,16155011325,-5.175419,0.964942,-8.228261,0.001530,0.001577,0.001320,0.289004,0.994880,2.843460,780.06,42.30,highres
1.257337,16155021803,-5.178642,0.976231,-8.227520,0.001493,0.003864,-0.000900,0.289004,0.994880,2.843460,780.06,42.30,highres
1.257724,16155036032,-5.177284,0.986796,-8.238802,0.001626,0.002433,0.000818,0.289004,0.994880,2.843460,780.06,42.30,highres
1.257724,16155041307,-5.170189,0.978589,-8.229459,0.000309,0.002399,-0.000938,0.289004,0.994880,2.843460,780.06,42.30,highres
1.257724,16155059079,-5.170527,0.970936,-8.229800,-0.000913,0.001017,0.000512,0.289004,0.994880,2.843460,780.06,42.30,highres
1.257724,16155064449,-5.171144,0.971171,-8.229885,-0.000553,-0.000746,-0.000076,0.289004,0.994880,2.843460,780.06,42.30,highres
1.257724,16155076641,-5.177982,0.975075,-8.218685,0.000329,0.000796,-0.001569,0.296079,0.987292,2.844192,780.06,42.30,highres
1.257724,16155085831,-5.174785,0.972286,-8.226289,0.001278,0.000494,-0.000633,0.296079,0.987292,2.844192,780.06,42.30,highres
1.257724,16155093606,-5.174714,0.972842,-8.213767,0.001489,0.001745,-0.001854,0.296079,0.987292,2.844192,780.06,42.30,highres
1.257724,16155106221,-5.175296,0.969410,-8.229752,0.001225,0.001630,-0.002085,0.296079,0.987292,2.844192,780.06,42.30,highres
1.257724,16155111310,-5.169795,0.973568,-8.224670,0.001683,0.002318,-0.001702,0.296079,0.987292,2.844192,780.06,42.30,highres
1.257724,16155126580,-5.179179,0.975075,-8.222594,0.000003,0.001555,-0.001244,0.296079,0.987292,2.844192,780.06,42.30,highres
1.257724,16155131516,-5.169284,0.982257,-8.220201,-0.001110,0.001860,-0.001854,0.296079,0.987292,2.844192,780.06,42.30,highres
1.257724,16155141598,-5.180376,0.972681,-8.234247,-0.000302,-0.000278,-0.000327,0.292347,0.987029,2.848491,780.06,42.30,highres
1.257724,16155156186,-5.181013,0.970437,-8.221080,-0.003224,-0.000451,-0.000022,0.292347,0.987029,2.848491,780.06,42.30,highres
1.258030,16155166673,-5.191367,0.980514,-8.223852,-0.001974,0.000426,-0.000633,0.292347,0.987029,2.848491,780.06,42.30,highres
1.258030,16155175839,-5.188764,0.972689,-8.224654,-0.000212,0.000458,-0.001153,0.292347,0.987029,2.848491,780.07,42.30,highres
1.258030,16155186697,-5.193202,0.975589,-8.233901,-0.000171,0.000684,-0.000676,0.292347,0.987029,2.848491,780.07,42.30,highres
1.258030,16155198657,-5.175600,0.970121,-8.228784,0.001225,0.002776,0.000436,0.292347,0.987029,2.848491,780.07,42.30,highres
1.258030,16155206917,-5.173452,0.975996,-8.223601,0.001258,0.002978,0.000349,0.292347,0.987029,2.848491,780.07,42.30,highres
1.258030,16155222107,-5.171275,0.975317,-8.226585,0.002141,0.003020,0.001750,0.296124,0.995716,2.845644,780.07,42.30,highres
1.258030,16155225946,-5.163172,0.976955,-8.229321,0.001979,0.003144,0.002035,0.296124,0.995716,2.845644,780.07,42.30,highres
1.258030,16155232329,-5.171140,0.976619,-8.226725,0.000447,0.002361,0.001644,0.296124,0.995716,2.845644,780.07,42.30,highres
1.258030,16155246067,-5.164814,0.973878,-8.233050,0.000919,0.001972,0.000228,0.296124,0.995716,2.845644,780.07,42.30,highres
1.258030,16155258870,-5.163361,0.974818,-8.228092,0.000271,0.001897,-0.000633,0.296124,0.995716,2.845644,780.07,42.30,highres
1.258030,16155265119,-5.160027,0.978666,-8.223473,0.001836,0.000944,-0.000327,0.296124,0.995716,2.845644,780.07,42.30,highres
1.258030,16155276636,-5.176785,0.978666,-8.231853,0.000003,0.001249,-0.001244,0.296124,0.995716,2.845644,780.07,42.30,highres
1.258030,16155281636,-5.173960,0.969520,-8.228018,0.000501,0.001528,-0.002160,0.283913,0.994343,2.845029,780.07,42.30,highres
1.258030,16155298360,-5.166865,0.961397,-8.240232,0.000888,0.000470,-0.000391,0.283913,0.994343,2.845029,780.07,42.30,highres
1.258030,16155308250,-5.182770,0.977455,-8.222304,0.000771,0.000176,-0.001410,0.283913,0.994343,2.845029,780.07,42.30,highres
1.258318,16155316150,-5.177025,0.971481,-8.230897,-0.000484,0.000944,-0.001244,0.283913,0.994343,2.845029,780.07,42.30,highres
1.258318,16155325131,-5.181573,0.970455,-8.225698,-0.000691,0.000638,-0.002217,0.283913,0.994343,2.845029,780.07,42.30,highres
1.258318,16155339402,-5.180850,0.969312,-8.229013,-0.002618,0.000845,-0.001017,0.283913,0.994343,2.845029,780.07,42.30,highres
1.258318,16155344353,-5.185766,0.985836,-8.221687,-0.001479,0.001204,-0.001504,0.283913,0.994343,2.845029,780.07,42.30,highres
1.258318,16155354432,-5.176180,0.973128,-8.229460,-0.001524,0.000944,-0.000633,0.288914,0.988902,2.847122,780.07,42.30,highres
1.258318,16155365460,-5.168977,0.975075,-8.236792,-0.001016,0.000538,-0.002057,0.288914,0.988902,2.847122,780.07,42.30,highres
1.258318,16155376425,-5.178030,0.975662,-8.227723,-0.000302,0.000028,-0.000327,0.288914,0.988902,2.847122,780.07,42.30,highres
1.258318,16155381770,-5.187559,0.976673,-8.235845,-0.000302,0.000945,-0.001244,0.288914,0.988902,2.847122,780.07,42.30,highres
1.258318,16155392105,-5.175172,0.975440,-8.245486,0.000309,0.000669,-0.000071,0.288914,0.988902,2.847122,780.07,42.30,highres
1.258318,16155398902,-5.184090,0.975197,-8.237203,-0.000395,0.001037,-0.001031,0.288914,0.988902,2.847122,780.07,42.30,highres
1.258318,16155411814,-5.188027,0.973025,-8.235405,-0.000453,0.000638,0.000136,0.288914,0.988902,2.847122,780.08,42.30,highres
1.258318,16155421951,-5.197135,0.981060,-8.228262,0.001568,0.000753,0.000894,0.287971,0.992322,2.842636,780.08,42.30,highres
1.258318,16155426463,-5.186962,0.982590,-8.221569,-0.000010,-0.000315,0.000883,0.287971,0.992322,2.842636,780.08,42.30,highres
1.258318,16155445034,-5.180269,0.976967,-8.234072,-0.000010,0.000907,0.000883,0.287971,0.992322,2.842636,780.08,42.30,highres
1.258318,16155453683,-5.176663,0.969010,-8.225693,0.001212,0.000602,0.000272,0.287971,0.992322,2.842636,780.08,42.30,highres
1.258549,16155458708,-5.176184,0.965400,-8.226889,0.001242,0.001037,0.000272,0.287971,0.992322,2.842636,780.08,42.30,highres
1.258549,16155474598,-5.186255,0.973856,-8.224496,0.002126,0.002127,-0.000847,0.287971,0.992322,2.842636,780.08,42.30,highres
1.258549,16155486681,-5.171131,0.981359,-8.225136,0.001573,0.001959,-0.000701,0.287971,0.992322,2.842636,780.08,42.30,highres
1.258549,16155499069,-5.177131,0.976170,-8.226810,0.001279,0.001518,-0.000950,0.289961,0.996063,2.844474,780.06,42.30,highres
1.258549,16155508748,-5.189165,0.971300,-8.231030,0.001134,0.001440,-0.001716,0.289961,0.996063,2.844474,780.06,42.30,highres
1.258549,16155516061,-5.175407,0.964869,-8.229875,0.000447,0.001058,-0.001715,0.289961,0.996063,2.844474,780.06,42.30,highres
1.258549,16155525608,-5.172771,0.964721,-8.235080,-0.000831,-0.000315,-0.001351,0.289961,0.996063,2.844474,780.06,42.30,highres
1.258549,16155534765,-5.177258,0.975053,-8.218589,-0.001232,0.000783,-0.000339,0.289961,0.996063,2.844474,780.06,42.30,highres
1.258549,16155539155,-5.175653,0.982895,-8.221981,-0.000560,0.000907,-0.001011,0.289961,0.996063,2.844474,780.06,42.30,highres
1.258549,16155556461,-5.177875,0.971462,-8.225692,0.001517,0.003512,0.000379,0.289961,0.996063,2.844474,780.06,42.30,highres
1.258549,16155569145,-5.175056,0.971385,-8.234149,0.000190,0.002203,0.000219,0.286295,0.989192,2.848510,780.06,42.30,highres
1.258549,16155580279,-5.176151,0.973957,-8.229955,0.000872,0.001993,-0.001120,0.286295,0.989192,2.848510,780.07,42.30,highres
1.258549,16155584816,-5.174970,0.982397,-8.233723,-0.000144,0.000513,-0.000339,0.286295,0.989192,2.848510,780.07,42.30,highres
1.258549,16155596903,-5.176678,0.975054,-8.232876,0.000295,-0.000926,-0.001255,0.286295,0.989192,2.848510,780.07,42.30,highres
1.258549,16155605085,-5.181816,0.975711,-8.225529,0.000295,0.002170,-0.001084,0.286295,0.989192,2.848510,780.07,42.30,highres
1.258752,16155619323,-5.168359,0.977938,-8.232169,-0.000316,0.001403,-0.000289,0.286295,0.989192,2.848510,780.07,42.30,highres
1.258752,16155629088,-5.169251,0.972829,-8.219661,-0.000116,0.001623,-0.000781,0.286295,0.989192,2.848510,780.07,42.30,highres
1.258752,16155639122,-5.167834,0.969334,-8.225361,0.000295,0.001043,-0.001086,0.280496,0.987941,2.849265,780.07,42.30,highres
1.258752,16155648106,-5.164707,0.981039,-8.229284,0.000295,0.000602,-0.000950,0.280496,0.987941,2.849265,780.07,42.30,highres
1.258752,16155656510,-5.179910,0.974523,-8.222906,0.001098,0.001156,-0.000815,0.280496,0.987941,2.849265,780.07,42.30,highres
1.258752,16155663339,-5.176294,0.977550,-8.218716,0.000224,0.000296,-0.001515,0.280496,0.987941,2.849265,780.07,42.30,highres
1.258752,16155674334,-5.173931,0.974209,-8.236182,-0.000010,-0.000620,-0.000950,0.280496,0.987941,2.849265,780.07,42.30,highres
1.258752,16155682726,-5.175721,0.978405,-8.220665,0.000295,-0.000315,0.000577,0.280496,0.987941,2.849265,780.07,42.30,highres
1.258752,16155691292,-5.184103,0.977903,-8.224539,0.000295,-0.000315,0.000577,0.280496,0.987941,2.849265,780.07,42.30,highres
1.258752,16155697002,-5.173071,0.981054,-8.221169,-0.000621,0.000042,0.001010,0.287098,0.987877,2.847862,780.07,42.30,highres
1.258752,16155707242,-5.185203,0.978796,-8.234521,-0.000621,0.000602,0.000883,0.287098,0.987877,2.847862,780.07,42.30,highres
1.258752,16155711779,-5.186422,0.974998,-8.229396,-0.000409,0.001146,0.000059,0.287098,0.987877,2.847862,780.07,42.30,highres
1.258752,16155731550,-5.179722,0.968521,-8.222548,0.001458,0.002317,-0.000586,0.287098,0.987877,2.847862,780.07,42.30,highres
1.258752,16155736667,-5.184591,0.975230,-8.226891,0.001679,0.002310,-0.000788,0.287098,0.987877,2.847862,780.07,42.30,highres
1.258938,16155746652,-5.186250,0.955915,-8.232265,0.003044,0.000947,-0.000201,0.287098,0.987877,2.847862,780.07,42.30,highres
1.258938,16155759176,-5.171225,0.977980,-8.237074,0.002493,0.001334,0.000391,0.287098,0.987877,2.847862,780.07,42.30,highres
1.258938,16155766615,-5.166414,0.958299,-8.226207,0.001364,0.000602,0.002563,0.288768,0.991017,2.841077,780.07,42.30,highres
1.258938,16155776859,-5.174027,0.960175,-8.230254,0.002782,0.000951,0.001755,0.288768,0.991017,2.841077,780.07,42.30,highres
1.258938,16155797880,-5.171889,0.971462,-8.231678,0.000177,0.002135,0.001725,0.288768,0.991017,2.841077,780.07,42.30,highres
1.258938,16155805037,-5.173342,0.975054,-8.228854,0.000361,0.002499,0.000883,0.288768,0.991017,2.841077,780.07,42.30,highres
1.258938,16155814638,-5.173087,0.976250,-8.231679,0.003044,0.002740,0.000577,0.288768,0.991017,2.841077,780.07,42.30,highres
1.258938,16155827568,-5.174449,0.970973,-8.233259,0.001408,0.002129,-0.000394,0.288768,0.991017,2.841077,780.06,42.30,highres
1.258938,16155840220,-5.171435,0.973210,-8.231129,-0.000316,-0.000223,-0.000480,0.288768,0.991017,2.841077,780.06,42.30,highres
1.258938,16155847600,-5.177454,0.970265,-8.230192,-0.001232,-0.000512,-0.000537,0.288136,0.994300,2.849744,780.06,42.30,highres
1.258938,16155859249,-5.159399,0.975211,-8.221424,-0.000179,0.001076,-0.000950,0.288136,0.994300,2.849744,780.06,42.30,highres
1.258938,16155869245,-5.168836,0.969033,-8.240161,-0.002144,0.001049,-0.002176,0.288136,0.994300,2.849744,780.06,42.30,highres
1.258938,16155879322,-5.165904,0.975053,-8.232875,-0.002614,0.000762,-0.002026,0.288136,0.994300,2.849744,780.06,42.30,highres
1.258938,16155887264,-5.173176,0.975426,-8.224771,-0.002195,0.000907,-0.001115,0.288136,0.994300,2.849744,780.06,42.30,highres
1.258938,16155900444,-5.176227,0.976819,-8.238586,-0.001612,0.001708,-0.002212,0.288136,0.994300,2.849744,780.06,42.30,highres
1.258938,16155909626,-5.182663,0.969526,-8.217669,-0.001583,0.000933,-0.001327,0.288136,0.994300,2.849744,780.06,42.30,highres
1.259124,16155916892,-5.173399,0.975348,-8.223437,-0.001700,0.001641,-0.001704,0.291279,0.992278,2.842957,780.06,42.30,highres
1.259124,16155927258,-5.186547,0.968088,-8.238173,-0.001985,0.000502,-0.002008,0.291279,0.992278,2.842957,780.06,42.30,highres
1.259124,16155937018,-5.177123,0.979295,-8.235373,-0.001563,0.000654,-0.001509,0.291279,0.992278,2.842957,780.06,42.30,highres
1.259124,16155949757,-5.174318,0.969827,-8.250749,-0.002313,-0.000810,-0.000339,0.291279,0.992278,2.842957,780.06,42.30,highres
1.259124,16155955695,-5.188498,0.967197,-8.245218,-0.002002,0.000442,-0.000034,0.291279,0.992278,2.842957,780.06,42.30,highres
1.259124,16155964451,-5.180269,0.969908,-8.241485,-0.002759,-0.001536,-0.000644,0.291279,0.992278,2.842957,780.06,42.30,highres
1.259124,16155974885,-5.176072,0.974462,-8.222753,-0.001693,-0.000009,0.000134,0.291279,0.992278,2.842957,780.06,42.30,highres
1.259217,16155985117,-5.171112,0.973496,-8.223299,-0.000316,-0.000009,-0.000950,0.280936,0.992094,2.847295,780.06,42.30,highres
1.259217,16155989819,-5.176678,0.985827,-8.226891,0.000527,-0.001105,0.000019,0.280936,0.992094,2.847295,780.06,42.30,highres
1.259217,16155999887,-5.184999,0.978370,-8.221395,0.001573,0.001018,-0.000367,0.280936,0.992094,2.847295,780.06,42.30,highres
1.259217,16156014256,-5.183860,0.977448,-8.213722,0.003433,0.002046,-0.001228,0.280936,0.992094,2.847295,780.06,42.30,highres
1.298012,16156019960,-5.184216,0.978928,-8.219772,0.003044,0.002434,-0.001866,0.280936,0.992094,2.847295,780.06,42.30,highres
1.308813,16156032155,-5.176550,0.969731,-8.227680,0.005952,0.003057,-0.001243,0.280936,0.992094,2.847295,780.06,42.30,highres
1.316245,16156044668,-5.180269,0.972659,-8.236466,0.005089,0.003151,-0.001162,0.280936,0.992094,2.847295,780.06,42.30,highres
1.327912,16156054570,-5.168108,0.968325,-8.231398,0.004620,0.003222,-0.000596,0.292021,0.981815,2.844250,780.06,42.30,highres
1.341729,16156059562,-5.175634,0.974349,-8.243464,0.003807,0.002892,0.000271,0.292021,0.981815,2.844250,780.06,42.30,highres
1.349563,16156072870,-5.174284,0.975054,-8.229285,0.003350,0.002918,-0.000161,0.292021,0.981815,2.844250,780.06,42.30,highres
1.359056,16156077453,-5.174720,0.980856,-8.226961,0.002799,0.001458,0.000070,0.292021,0.981815,2.844250,780.06,42.30,highres
1.368820,16156092762,-5.175651,0.973856,-8.224453,0.001212,0.002434,-0.000644,0.292021,0.981815,2.844250,780.06,42.30,highres
1.380287,16156102193,-5.174098,0.959042,-8.237346,0.000601,0.000296,0.000577,0.292021,0.981815,2.844250,780.06,42.30,highres
1.389753,16156117251,-5.171252,0.964996,-8.236786,0.000986,0.001269,-0.000057,0.292021,0.981815,2.844250,780.06,42.30,highres
1.401212,16156122192,-5.180476,0.968988,-8.228868,-0.000147,0.001855,0.000409,0.291985,0.988622,2.847021,780.06,42.30,highres
1.409377,16156138041,-5.169496,0.983433,-8.222102,0.000295,0.001518,0.000883,0.291985,0.988622,2.847021,780.07,42.30,highres
1.420937,16156150559,-5.170617,0.982433,-8.228512,-0.000297,0.000710,-0.000644,0.291985,0.988622,2.847021,780.07,42.30,highres
1.427524,16156155701,-5.171851,0.976682,-8.233818,-0.000185,0.001583,0.000763,0.291985,0.988622,2.847021,780.07,42.30,highres
1.433169,16156164964,-5.167100,0.982236,-8.231677,0.000295,0.002129,-0.000950,0.291985,0.988622,2.847021,780.07,42.30,highres
1.449668,16156173412,-5.176528,0.969705,-8.228647,0.000601,-0.000009,-0.000339,0.291985,0.988622,2.847021,780.07,42.30,highres
1.460571,16156182644,-5.168621,0.966351,-8.235210,0.000600,0.000907,-0.002325,0.291985,0.988622,2.847021,780.07,42.30,highres
1.469093,16156187423,-5.171631,0.969068,-8.223041,0.000087,0.000602,-0.002037,0.290582,0.988172,2.839736,780.07,42.30,highres
1.476641,16156195065,-5.174881,0.969367,-8.219110,-0.000621,-0.000220,-0.002707,0.290582,0.988172,2.839736,780.07,42.30,highres
1.488255,16156216268,-5.173086,0.965477,-8.230481,-0.000621,0.000296,-0.001255,0.290582,0.988172,2.839736,780.07,42.30,highres
1.501212,16156227086,-5.180269,0.967871,-8.226260,-0.000621,-0.000026,-0.000435,0.290582,0.988172,2.839736,780.07,42.30,highres
1.508619,16156239562,-5.187264,0.984114,-8.239727,-0.001142,0.001386,-0.001387,0.290582,0.988172,2.839736,780.07,42.30,highres
1.516115,16156244764,-5.189847,0.974259,-8.229682,-0.001130,-0.000315,-0.000543,0.290582,0.988172,2.839736,780.07,42.30,highres
1.530925,16156257130,-5.174663,0.970557,-8.231766,-0.000520,0.000910,0.001188,0.290582,0.988172,2.839736,780.07,42.30,highres
1.542987,16156269978,-5.185769,0.973856,-8.236985,-0.000843,0.000740,0.001549,0.292989,0.990727,2.847378,780.07,42.30,highres
1.548781,16156282542,-5.186297,0.961950,-8.224518,0.001350,-0.000453,0.001272,0.292989,0.990727,2.847378,780.07,42.30,highres
1.561630,16156291150,-5.184737,0.967701,-8.224345,0.001005,0.000799,0.001898,0.292989,0.990727,2.847378,780.07,42.30,highres
1.568956,16156295038,-5.177876,0.969068,-8.222101,0.001517,0.000296,0.000577,0.292989,0.990727,2.847378,780.06,42.30,highres
1.580089,16156304941,-5.168678,0.979432,-8.246074,0.001822,0.001518,0.001710,0.292989,0.990727,2.847378,780.06,42.30,highres
1.588257,16156315927,-5.174432,0.973184,-8.241255,0.001517,0.001518,0.001799,0.292989,0.990727,2.847378,780.06,42.30,highres
1.600224,16156325442,-5.172927,0.972400,-8.231518,0.001822,0.001518,0.001799,0.292989,0.990727,2.847378,780.06,42.30,highres
1.608883,16156330237,-5.165330,0.977400,-8.211855,0.000207,0.000317,0.001581,0.285076,0.990938,2.849249,780.06,42.30,highres
1.621477,16156347421,-5.163355,0.975218,-8.220567,0.002295,0.000296,0.000272,0.285076,0.990938,2.849249,780.06,42.30,highres
1.628647,16156352989,-5.154248,0.977879,-8.227498,0.001953,0.000166,0.000272,0.285076,0.990938,2.849249,780.06,42.30,highres
1.632072,16156365670,-5.174283,0.965477,-8.232875,0.001822,0.000296,-0.000644,0.285076,0.990938,2.849249,780.06,42.30,highres
1.650026,16156378007,-5.185057,0.966877,-8.233869,0.000534,-0.000089,-0.001269,0.285076,0.990938,2.849249,780.06,42.30,highres
1.660231,16156389764,-5.178540,0.968479,-8.233426,-0.001168,-0.000741,-0.000524,0.285076,0.990938,2.849249,780.06,42.30,highres
1.667524,16156395123,-5.168291,0.964895,-8.243613,-0.002454,-0.000926,-0.000644,0.285076,0.990938,2.849249,780.06,42.30,highres
1.676207,16156399947,-5.174904,0.957016,-8.229779,-0.003541,-0.002795,-0.000168,0.287364,0.992691,2.847086,780.06,42.30,highres
1.687947,16156409841,-5.172992,0.970543,-8.216941,-0.004153,-0.002147,0.000883,0.287364,0.992691,2.847086,780.06,42.30,highres
1.694067,16156422926,-5.183980,0.980500,-8.233356,-0.003958,-0.000926,0.001211,0.287364,0.992691,2.847086,780.06,42.30,highres
1.707647,16156432913,-5.176678,0.971462,-8.225693,-0.002165,-0.000620,0.002249,0.287364,0.992691,2.847086,780.06,42.30,highres
1.715888,16156437459,-5.178811,0.973443,-8.217423,-0.000627,-0.000655,0.003333,0.287364,0.992691,2.847086,780.06,42.30,highres
1.728368,16156452183,-5.180392,0.972676,-8.243850,0.004044,-0.000667,0.002633,0.287364,0.992691,2.847086,780.06,42.30,highres
1.740728,16156465610,-5.181589,0.972676,-8.230682,-0.001466,0.001082,0.001386,0.287364,0.992691,2.847086,780.06,42.30,highres
1.749296,16156480650,-5.180601,0.987820,-8.216889,0.000820,-0.000989,-0.000972,0.289544,0.996244,2.846378,780.06,42.30,highres
1.760768,16156487825,-5.176800,0.979858,-8.225894,0.002122,0.000261,-0.002470,0.289544,0.996244,2.846378,780.06,42.30,highres
1.767401,16156497788,-5.168834,0.977753,-8.239391,0.000679,0.000598,-0.001996,0.289544,0.996244,2.846378,780.06,42.30,highres
1.781116,16156507480,-5.172581,0.973256,-8.238433,-0.001238,-0.000655,-0.001249,0.289544,0.996244,2.846378,780.06,42.30,highres
1.789169,16156513603,-5.189891,0.978817,-8.235550,-0.000627,-0.000350,-0.001989,0.289544,0.996244,2.846378,780.06,42.30,highres
1.801601,16156529903,-5.189883,0.965023,-8.234360,-0.001631,-0.000070,-0.002165,0.289544,0.996244,2.846378,780.06,42.30,highres
1.809771,16156535283,-5.180995,0.966101,-8.243242,-0.002307,0.000413,-0.002317,0.289544,0.996244,2.846378,780.07,42.30,highres
1.820021,16156544998,-5.196268,0.969551,-8.223815,-0.002645,0.001178,-0.001647,0.277246,0.993013,2.848213,780.07,42.30,highres
1.827754,16156557569,-5.177716,0.969266,-8.225432,-0.000987,0.000872,-0.000638,0.277246,0.993013,2.848213,780.07,42.30,highres
1.833168,16156564635,-5.187815,0.960826,-8.230803,0.000371,0.000261,-0.001747,0.277246,0.993013,2.848213,780.07,42.30,highres
1.848613,16156578309,-5.181943,0.964140,-8.221085,-0.000146,0.001353,0.001149,0.277246,0.993013,2.848213,780.07,42.30,highres
1.861514,16156587932,-5.179158,0.979447,-8.216280,-0.000016,0.002597,0.001294,0.277246,0.993013,2.848213,780.07,42.30,highres
1.868538,16156595750,-5.183439,0.978733,-8.225893,0.000211,0.001806,0.000793,0.277246,0.993013,2.848213,780.07,42.30,highres
1.881655,16156610102,-5.185622,0.973723,-8.232925,0.000002,0.000907,0.001823,0.277246,0.993013,2.848213,780.07,42.30,highres
1.892609,16156621443,-5.182153,0.958174,-8.234907,0.001350,0.001483,0.001644,0.288174,0.987238,2.849241,780.07,42.30,highres
1.901212,16156626250,-5.178650,0.963539,-8.232714,0.001817,0.001788,0.001195,0.288174,0.987238,2.849241,780.07,42.30,highres
1.908796,16156640304,-5.169201,0.981055,-8.235598,0.002447,0.001664,-0.000170,0.288174,0.987238,2.849241,780.07,42.30,highres
1.914328,16156645581,-5.163431,0.982345,-8.236684,0.002912,0.001304,0.001322,0.288174,0.987238,2.849241,780.07,42.30,highres
1.928178,16156660238,-5.166057,0.966749,-8.220611,0.002749,0.001781,0.001038,0.288174,0.987238,2.849241,780.07,42.30,highres
1.942059,16156664334,-5.172012,0.971479,-8.234273,0.003039,0.002094,0.001195,0.288174,0.987238,2.849241,780.07,42.30,highres
1.947819,16156675355,-5.170816,0.972676,-8.218712,0.001206,0.002399,0.000278,0.288174,0.987238,2.849241,780.07,42.30,highres
1.959454,16156685282,-5.174620,0.972113,-8.241031,0.000731,0.001008,-0.000196,0.289204,0.990552,2.843944,780.07,42.30,highres
1.970276,16156698153,-5.171875,0.975499,-8.236238,0.000082,-0.000570,-0.000430,0.289204,0.990552,2.843944,780.07,42.30,highres
1.980724,16156709022,-5.177240,0.974165,-8.221339,-0.000873,-0.000178,-0.000027,0.289204,0.990552,2.843944,780.07,42.30,highres
1.993038,16156717878,-5.170002,0.975860,-8.241073,-0.001036,-0.000655,-0.000742,0.289204,0.990552,2.843944,780.07,42.30,highres
2.000339,16156725337,-5.172537,0.973611,-8.230364,-0.000679,0.000023,-0.002113,0.289204,0.990552,2.843944,780.07,42.30,highres
2.009019,16156735581,-5.172569,0.983589,-8.222164,0.000936,0.000908,-0.002165,0.289204,0.990552,2.843944,780.07,42.30,highres
2.020769,16156747956,-5.174407,0.978661,-8.234273,0.000900,0.001483,-0.000943,0.289204,0.990552,2.843944,780.07,42.30,highres
2.029605,16156755264,-5.173577,0.976043,-8.237546,0.000900,0.001597,-0.001135,0.291873,0.994303,2.848168,780.07,42.30,highres
2.031967,16156764612,-5.183983,0.970282,-8.228288,0.002428,0.001788,0.000278,0.291873,0.994303,2.848168,780.07,42.30,highres
2.048077,16156780598,-5.187574,0.975070,-8.227091,0.000932,0.001303,0.000216,0.291873,0.994303,2.848168,780.07,42.30,highres
2.061219,16156785813,-5.182786,0.971667,-8.234147,0.000595,0.000567,-0.000027,0.291873,0.994303,2.848168,780.07,42.30,highres
2.067787,16156795323,-5.184580,0.972916,-8.238584,0.000133,0.001405,-0.000404,0.291873,0.994303,2.848168,780.07,42.30,highres
2.082061,16156808365,-5.183170,0.962377,-8.226572,-0.000932,0.000450,0.000934,0.291873,0.994303,2.848168,780.07,42.30,highres
2.088052,16156813098,-5.179289,0.979333,-8.228436,-0.000016,-0.000044,0.001195,0.291873,0.994303,2.848168,780.07,42.30,highres
2.101563,16156821147,-5.174407,0.973034,-8.228647,-0.000454,0.001483,0.001062,0.292803,0.982907,2.852126,780.07,42.30,highres
2.108058,16156830756,-5.177368,0.977355,-8.230116,0.000737,0.002072,0.001075,0.292803,0.982907,2.852126,780.07,42.30,highres
2.117073,16156840826,-5.175604,0.971302,-8.222937,0.002115,0.003017,0.000435,0.292803,0.982907,2.852126,780.07,42.30,highres
2.128779,16156850963,-5.168314,0.962554,-8.229057,0.002488,0.001849,0.000521,0.292803,0.982907,2.852126,780.07,42.30,highres
2.141106,16156861111,-5.174947,0.976267,-8.238656,0.003344,0.001483,-0.001249,0.292803,0.982907,2.852126,780.07,42.30,highres
2.148212,16156871202,-5.167564,0.967888,-8.241101,0.002883,0.001639,-0.000482,0.292803,0.982907,2.852126,780.07,42.30,highres
2.160280,16156875639,-5.174291,0.969265,-8.230798,0.000915,0.001788,0.000118,0.292803,0.982907,2.852126,780.07,42.30,highres
2.167873,16156884809,-5.174784,0.964673,-8.233454,0.000290,-0.000044,-0.000638,0.285142,0.995453,2.853509,780.07,42.30,highres
2.181301,16156888305,-5.170615,0.965452,-8.227928,0.000170,-0.000469,-0.000698,0.285142,0.995453,2.853509,780.07,42.30,highres
2.187721,16156898334,-5.178867,0.970282,-8.229707,-0.000177,-0.001844,0.000295,0.285142,0.995453,2.853509,780.07,42.30,highres
2.201132,16156930704,-5.181125,0.972212,-8.241651,-0.002459,0.000796,0.001907,0.285142,0.995453,2.853509,780.07,42.30,highres
2.209841,16156940817,-5.175978,0.978286,-8.230114,-0.002942,-0.001344,0.000811,0.285142,0.995453,2.853509,780.08,42.30,highres
2.220676,16156945186,-5.182526,0.973161,-8.219615,-0.000648,-0.000834,-0.000490,0.285142,0.995453,2.853509,780.08,42.30,highres
2.227666,16156960780,-5.171512,0.976044,-8.222301,0.003955,-0.000122,-0.000638,0.285142,0.995453,2.853509,780.08,42.30,highres
2.233120,16156965329,-5.173815,0.978094,-8.229447,0.002637,0.000433,-0.001554,0.287324,0.991506,2.850693,780.08,42.30,highres
2.248092,16156978227,-5.181688,0.977365,-8.235921,-0.000486,0.002284,-0.000307,0.287324,0.991506,2.850693,780.08,42.30,highres
2.259991,16156986134,-5.188096,0.971373,-8.233858,-0.001238,0.001788,-0.001249,0.287324,0.991506,2.850693,780.08,42.30,highres
2.259991,16156993411,-5.181589,0.971479,-8.231878,-0.001032,0.000667,-0.002375,0.287324,0.991506,2.850693,780.08,42.30,highres
2.259991,16157007200,-5.182786,0.970282,-8.235471,-0.000321,-0.000350,-0.002470,0.287324,0.991506,2.850693,780.08,42.30,highres
2.259991,16157018321,-5.173748,0.967626,-8.225491,-0.001665,-0.000655,-0.001677,0.287324,0.991506,2.850693,780.08,42.30,highres
2.302869,16157025851,-5.190543,0.969085,-8.224075,-0.001995,0.000287,-0.001713,0.287324,0.991506,2.850693,780.08,42.30,highres
2.312729,16157030749,-5.184114,0.980738,-8.229298,-0.000772,0.001192,-0.001540,0.289384,0.989632,2.845472,780.08,42.30,highres
2.321656,16157048014,-5.173211,0.958311,-8.218249,-0.000321,0.002099,-0.000761,0.289384,0.989632,2.845472,780.08,42.30,highres
2.328149,16157058780,-5.180962,0.967260,-8.232449,-0.000482,0.001819,-0.000027,0.289384,0.989632,2.845472,780.08,42.30,highres
2.340434,16157065928,-5.189261,0.972676,-8.230120,-0.000510,0.000144,-0.000073,0.289384,0.989632,2.845472,780.08,42.30,highres
2.347866,16157076337,-5.177999,0.968022,-8.243152,-0.002154,0.001019,0.001341,0.289384,0.989632,2.845472,780.08,42.30,highres
2.360616,16157086093,-5.191165,0.972676,-8.227091,-0.001543,0.000872,0.001806,0.289384,0.989632,2.845472,780.08,42.30,highres
2.368580,16157095221,-5.173555,0.974032,-8.219900,0.000045,0.002017,0.003333,0.289384,0.989632,2.845472,780.07,42.30,highres
2.381900,16157105665,-5.191165,0.975070,-8.225894,0.003344,-0.000044,0.003333,0.292510,0.993885,2.848039,780.07,42.30,highres
2.387925,16157118049,-5.170836,0.975952,-8.232625,0.005177,-0.000425,0.001730,0.292510,0.993885,2.848039,780.07,42.30,highres
2.400091,16157128295,-5.182931,0.974217,-8.227309,0.003039,0.002436,0.002551,0.292510,0.993885,2.848039,780.07,42.30,highres
2.407860,16157135835,-5.176801,0.977464,-8.228289,0.003039,0.003316,0.001500,0.292510,0.993885,2.848039,780.07,42.30,highres
2.421445,16157146036,-5.169385,0.995024,-8.224140,0.001369,0.002052,-0.000027,0.292510,0.993885,2.848039,780.07,42.30,highres
2.427816,16157158236,-5.168472,0.983584,-8.238791,0.001318,0.000261,-0.000139,0.292510,0.993885,2.848039,780.07,42.30,highres
2.441381,16157168592,-5.170815,0.966611,-8.248607,0.000135,0.000261,-0.002470,0.293283,0.992120,2.846734,780.07,42.30,highres
2.450060,16157173293,-5.175963,0.964731,-8.236212,-0.000767,0.001013,-0.001554,0.293283,0.992120,2.846734,780.07,42.30,highres
2.457963,16157186036,-5.177998,0.982252,-8.231879,-0.000133,0.001507,-0.001578,0.293283,0.992120,2.846734,780.07,42.30,highres
2.468533,16157196416,-5.182786,0.961902,-8.223500,-0.000627,0.000261,-0.002470,0.293283,0.992120,2.846734,780.07,42.30,highres
2.481595,16157211102,-5.168892,0.972375,-8.223969,-0.000649,0.002138,-0.001882,0.293283,0.992120,2.846734,780.07,42.30,highres
2.489345,16157218225,-5.171287,0.971675,-8.232272,0.000069,0.001483,-0.002080,0.293283,0.992120,2.846734,780.07,42.30,highres
2.501643,16157230556,-5.175798,0.973759,-8.230682,0.000426,0.002705,-0.000840,0.293283,0.992120,2.846734,780.07,42.30,highres
2.508008,16157235399,-5.181880,0.976062,-8.234068,-0.000440,0.000448,-0.001436,0.293283,0.992120,2.846734,780.07,42.30,highres
2.520649,16157247790,-5.176800,0.967644,-8.229718,-0.001171,0.000261,0.000030,0.287637,0.994148,2.850538,780.07,42.30,highres
2.527975,16157258316,-5.185750,0.978661,-8.225894,-0.001246,0.000418,0.000584,0.287637,0.994148,2.850538,780.07,42.30,highres
2.541069,16157263562,-5.182008,0.978122,-8.221944,-0.000932,0.000395,0.000584,0.287637,0.994148,2.850538,780.07,42.30,highres
2.548294,16157277883,-5.184901,0.972776,-8.234553,-0.001425,0.000849,0.000748,0.287637,0.994148,2.850538,780.07,42.30,highres
2.559593,16157291151,-5.175159,0.977224,-8.212967,-0.001392,0.000102,0.001496,0.287637,0.994148,2.850538,780.07,42.30,highres
2.568330,16157295619,-5.170138,0.966533,-8.218035,-0.000749,0.001300,0.001256,0.287637,0.994148,2.850538,780.07,42.30,highres
2.575381,16157305625,-5.187505,0.960774,-8.233289,0.000164,0.001250,0.001626,0.283931,0.985711,2.848684,780.07,42.30,highres
2.593151,16157321663,-5.183380,0.961912,-8.225319,0.000470,-0.000044,0.000153,0.283931,0.985711,2.848684,780.07,42.30,highres
2.599603,16157325775,-5.180393,0.972459,-8.228001,0.001224,0.000585,0.001176,0.283931,0.985711,2.848684,780.07,42.30,highres
2.607258,16157336301,-5.174407,0.969085,-8.237864,0.000595,0.001178,0.000889,0.283931,0.985711,2.848684,780.07,42.30,highres
2.621141,16157350829,-5.181122,0.981257,-8.222069,-0.000076,0.000567,0.001314,0.283931,0.985711,2.848684,780.07,42.30,highres
2.627860,16157360802,-5.172635,0.972629,-8.229469,-0.001820,-0.000488,0.000360,0.283931,0.985711,2.848684,780.07,42.30,highres
2.638803,16157365454,-5.178123,0.978976,-8.233644,-0.000691,-0.000494,-0.000011,0.283931,0.985711,2.848684,780.07,42.30,highres
2.649402,16157378063,-5.171626,0.974598,-8.229655,0.000052,0.001030,0.000278,0.291830,0.993844,2.845795,780.07,42.30,highres
2.660250,16157388156,-5.175242,0.954999,-8.225336,0.001962,0.000792,-0.000092,0.291830,0.993844,2.845795,780.07,42.30,highres
2.668418,16157395493,-5.176003,0.975072,-8.234673,0.003029,0.000863,-0.000342,0.291830,0.993844,2.845795,780.07,42.30,highres
2.681445,16157405978,-5.175603,0.963099,-8.222303,0.003344,0.000567,-0.000332,0.291830,0.993844,2.845795,780.07,42.30,highres
2.692858,16157415585,-5.175603,0.979858,-8.235469,0.001511,0.001483,-0.000638,0.291830,0.993844,2.845795,780.07,42.30,highres
2.702293,16157425575,-5.176765,0.979894,-8.234998,0.001487,0.001178,-0.001249,0.291830,0.993844,2.845795,780.07,42.30,highres
2.707768,16157434018,-5.165293,0.970933,-8.233727,0.001037,0.001748,-0.000943,0.291830,0.993844,2.845795,780.07,42.30,highres
2.717313,16157450903,-5.166474,0.962668,-8.228290,-0.000460,-0.000073,-0.000805,0.292697,0.994682,2.852251,780.07,42.30,highres
2.728880,16157455665,-5.175263,0.961352,-8.232935,-0.002058,-0.000629,-0.000159,0.292697,0.994682,2.852251,780.07,42.30,highres
2.740884,16157468368,-5.179871,0.977912,-8.230753,-0.002478,-0.000487,-0.002295,0.292697,0.994682,2.852251,780.07,42.30,highres
2.749920,16157481058,-5.177682,0.971028,-8.232265,-0.002940,0.000071,0.000104,0.292697,0.994682,2.852251,780.07,42.30,highres
2.759557,16157485812,-5.188031,0.975600,-8.224981,-0.004136,-0.000375,0.000044,0.292697,0.994682,2.852251,780.07,42.30,highres
2.767518,16157493478,-5.193827,0.967071,-8.224034,-0.002847,-0.001109,-0.000227,0.292697,0.994682,2.852251,780.07,42.30,highres
2.780234,16157508421,-5.178632,0.981485,-8.235918,-0.001670,0.000059,-0.000547,0.292697,0.994682,2.852251,780.07,42.30,highres
2.788072,16157516416,-5.175871,0.973885,-8.230329,-0.001357,0.000440,-0.000656,0.292697,0.994682,2.852251,780.07,42.30,highres
2.799951,16157531061,-5.180659,0.983551,-8.234532,0.000691,0.001590,-0.001152,0.288735,0.993225,2.849511,780.07,42.30,highres
2.808853,16157535962,-5.175871,0.987079,-8.237116,-0.000425,0.002768,-0.001135,0.288735,0.993225,2.849511,780.07,42.30,highres
2.820089,16157544130,-5.177097,0.972160,-8.234051,-0.000083,0.002285,-0.000744,0.288735,0.993225,2.849511,780.07,42.30,highres
2.828972,16157558492,-5.188127,0.973686,-8.231758,0.000271,0.002301,-0.000889,0.288735,0.993225,2.849511,780.07,42.30,highres
2.832924,16157565591,-5.179640,0.971686,-8.229250,0.001664,0.002642,-0.000790,0.288735,0.993225,2.849511,780.07,42.30,highres
2.849130,16157573837,-5.186645,0.964918,-8.219756,0.002293,0.001152,0.000406,0.288735,0.993225,2.849511,780.06,42.30,highres
2.860853,16157585761,-5.175871,0.970321,-8.233525,0.001798,-0.000070,-0.000045,0.285242,0.995666,2.845640,780.06,42.30,highres
2.867717,16157591009,-5.170500,0.967282,-8.236227,0.002104,0.001152,0.000253,0.285242,0.995666,2.845640,780.06,42.30,highres
2.881376,16157603707,-5.165098,0.959252,-8.225511,0.000442,0.000321,0.000700,0.285242,0.995666,2.845640,780.06,42.30,highres
2.892670,16157613288,-5.170366,0.973290,-8.234674,-0.000733,0.001173,-0.000242,0.285242,0.995666,2.845640,780.06,42.30,highres
2.901037,16157624829,-5.169645,0.983007,-8.222751,-0.000645,0.000847,0.000566,0.285242,0.995666,2.845640,780.06,42.30,highres
2.907545,16157628243,-5.172882,0.985439,-8.231728,-0.000674,0.000022,-0.001722,0.285242,0.995666,2.845640,780.06,42.30,highres
2.915199,16157641915,-5.172006,0.980820,-8.233063,-0.001758,0.001959,-0.000677,0.285242,0.995666,2.845640,780.06,42.30,highres
2.929070,16157653360,-5.185447,0.967494,-8.220988,-0.000340,0.001763,-0.001267,0.285242,0.995666,2.845640,780.06,42.30,highres
2.940462,16157664629,-5.178591,0.975839,-8.235391,-0.001256,0.000998,-0.002183,0.293195,0.994124,2.845563,780.06,42.30,highres
2.948657,16157672420,-5.183901,0.970818,-8.231628,-0.001256,-0.000070,-0.002794,0.293195,0.994124,2.845563,780.06,42.30,highres
2.960570,16157684854,-5.183308,0.966983,-8.224420,-0.002256,0.001679,-0.001702,0.293195,0.994124,2.845563,780.06,42.30,highres
2.967912,16157693294,-5.183053,0.967927,-8.233524,-0.001391,0.000881,-0.001232,0.293195,0.994124,2.845563,780.06,42.30,highres
2.982849,16157706604,-5.177069,0.959547,-8.232328,-0.001672,0.000983,0.000455,0.293195,0.994124,2.845563,780.06,42.30,highres
2.988246,16157715830,-5.167053,0.971542,-8.223094,-0.001273,0.001553,0.000356,0.293195,0.994124,2.845563,780.06,42.30,highres
3.000376,16157722051,-5.181292,0.970343,-8.224016,0.000577,0.002918,0.001363,0.292466,0.990395,2.853724,780.06,42.30,highres
3.007718,16157732017,-5.178604,0.974360,-8.222303,0.001271,0.002622,0.001704,0.292466,0.990395,2.853724,780.05,42.30,highres
3.016319,16157735937,-5.177068,0.977503,-8.229934,0.002169,0.003239,0.000937,0.292466,0.990395,2.853724,780.05,42.30,highres
3.028665,16157754833,-5.175871,0.971518,-8.231426,0.001188,0.002374,0.001482,0.292466,0.990395,2.853724,780.05,42.30,highres
3.032722,16157758607,-5.172474,0.971247,-8.231710,0.003326,0.004222,0.000078,0.292466,0.990395,2.853724,780.05,42.30,highres
3.049920,16157771635,-5.179462,0.965532,-8.233525,0.002860,0.002084,-0.000801,0.292466,0.990395,2.853724,780.05,42.30,highres
3.061028,16157782181,-5.179711,0.981260,-8.243825,0.002337,0.001080,0.000261,0.292466,0.990395,2.853724,780.05,42.30,highres
3.068065,16157792035,-5.174619,0.973341,-8.235293,0.002715,0.001763,-0.000656,0.292466,0.990395,2.853724,780.05,42.30,highres
3.075768,16157803090,-5.178690,0.962174,-8.239393,0.001188,0.000236,-0.001314,0.284359,0.991207,2.847222,780.05,42.30,highres
3.088606,16157811663,-5.170209,0.963967,-8.223534,0.001188,0.001457,-0.002183,0.284359,0.991207,2.847222,780.05,42.30,highres
3.101240,16157825677,-5.179712,0.978978,-8.240067,0.000491,0.002031,-0.002001,0.284359,0.991207,2.847222,780.05,42.30,highres
3.108810,16157835408,-5.169886,0.977023,-8.216049,0.000271,0.000847,-0.001878,0.284359,0.991207,2.847222,780.05,42.30,highres
3.115170,16157839246,-5.176259,0.975337,-8.229706,-0.000340,0.001286,-0.001878,0.284359,0.991207,2.847222,780.05,42.30,highres
3.130025,16157852665,-5.178265,0.975109,-8.232327,0.000708,0.001242,-0.000961,0.284359,0.991207,2.847222,780.05,42.30,highres
3.142218,16157862787,-5.182474,0.964082,-8.232618,-0.000145,0.001568,-0.001378,0.290035,0.989275,2.846671,780.05,42.30,highres
3.148756,16157874380,-5.177545,0.959791,-8.233768,-0.000034,0.001457,0.000261,0.290035,0.989275,2.846671,780.05,42.30,highres
3.159291,16157881856,-5.181856,0.973912,-8.231131,-0.000645,0.001316,-0.000410,0.290035,0.989275,2.846671,780.05,42.30,highres
3.168328,16157891799,-5.174170,0.973723,-8.228421,0.000139,0.001284,0.000781,0.290035,0.989275,2.846671,780.06,42.30,highres
3.181897,16157908579,-5.182275,0.965114,-8.224665,-0.000340,0.000864,-0.000529,0.290035,0.989275,2.846671,780.06,42.30,highres
3.188148,16157917027,-5.185877,0.977413,-8.223679,0.000733,0.000428,-0.000350,0.290035,0.989275,2.846671,780.06,42.30,highres
3.199865,16157927087,-5.172710,0.971652,-8.242105,0.001349,0.002264,-0.000350,0.290035,0.989275,2.846671,780.06,42.30,highres
3.207007,16157938924,-5.176746,0.960287,-8.235501,0.000462,0.001858,-0.000637,0.290035,0.989275,2.846671,780.06,42.30,highres
3.220287,16157947421,-5.175397,0.965277,-8.243109,0.000941,0.001457,-0.001267,0.290375,0.991524,2.849354,780.06,42.30,highres
3.230287,16157956799,-5.179330,0.966729,-8.234589,0.001079,0.000650,-0.000262,0.290375,0.991524,2.849354,780.06,42.30,highres
3.233403,16157966767,-5.175871,0.972291,-8.229086,0.000744,0.001763,-0.001404,0.290375,0.991524,2.849354,780.06,42.30,highres
3.247976,16157977195,-5.176427,0.969765,-8.226899,-0.000042,0.000079,-0.000358,0.290375,0.991524,2.849354,780.05,42.30,highres
3.258273,16157986625,-5.177732,0.958307,-8.227050,-0.000835,0.000483,-0.001267,0.290375,0.991524,2.849354,780.05,42.30,highres
3.262362,16157993633,-5.180924,0.966200,-8.236141,-0.000521,0.000903,-0.000656,0.290375,0.991524,2.849354,780.05,42.30,highres
3.262362,16158004832,-5.171565,0.975512,-8.244377,-0.000034,0.001640,-0.000819,0.291346,0.989021,2.852010,780.05,42.30,highres
3.262362,16158014189,-5.165770,0.969124,-8.243735,-0.002260,-0.000593,-0.000350,0.291346,0.989021,2.852010,780.05,42.30,highres
3.302982,16158026805,-5.173477,0.977503,-8.231835,-0.001801,-0.000202,-0.000165,0.291346,0.989021,2.852010,780.05,42.30,highres
3.307890,16158036588,-5.177726,0.969069,-8.227658,-0.001256,-0.000375,0.000566,0.291346,0.989021,2.852010,780.05,42.30,highres
3.315134,16158047126,-5.172280,0.975109,-8.229934,-0.002478,-0.000375,-0.000961,0.291346,0.989021,2.852010,780.05,42.30,highres
3.331835,16158056801,-5.178265,0.964724,-8.214501,-0.001730,-0.000512,-0.000045,0.291346,0.989021,2.852010,780.06,42.30,highres
3.341914,16158066612,-5.177069,0.970321,-8.219161,-0.001867,-0.000681,-0.000656,0.291346,0.989021,2.852010,780.06,42.30,highres
3.349090,16158077111,-5.178266,0.977503,-8.221555,-0.000034,0.000541,0.000566,0.291346,0.989021,2.852010,780.06,42.30,highres
3.358856,16158082212,-5.180908,0.979649,-8.227357,-0.000267,0.000119,-0.000045,0.288942,0.993871,2.846509,780.06,42.30,highres
3.368457,16158091883,-5.171661,0.978081,-8.227619,0.000271,0.001152,0.000261,0.288942,0.993871,2.846509,780.06,42.30,highres
3.381811,16158107109,-5.177069,0.969124,-8.232328,-0.000950,0.000588,-0.001455,0.288942,0.993871,2.846509,780.06,42.30,highres
3.392812,16158112219,-5.181733,0.964719,-8.224513,0.000427,0.000390,-0.001878,0.288942,0.993871,2.846509,780.06,42.30,highres
3.401952,16158124979,-5.168906,0.964081,-8.233346,0.000577,-0.000070,-0.001572,0.288942,0.993871,2.846509,780.06,42.30,highres
3.408594,16158129466,-5.176702,0.970944,-8.238807,0.000762,-0.000190,-0.002368,0.288942,0.993871,2.846509,780.06,42.30,highres
3.413937,16158144441,-5.193417,0.975686,-8.220357,0.000577,0.001152,-0.000656,0.286647,0.997886,2.844677,780.06,42.30,highres
3.428969,16158150279,-5.183170,0.973236,-8.214584,0.000207,0.000420,-0.000109,0.286647,0.997886,2.844677,780.06,42.30,highres
3.433268,16158159539,-5.194177,0.981794,-8.235641,0.001553,0.001030,-0.001083,0.286647,0.997886,2.844677,780.06,42.30,highres
3.450106,16158174479,-5.181044,0.968837,-8.215139,0.001685,0.001231,0.000148,0.286647,0.997886,2.844677,780.06,42.30,highres
3.460424,16158185011,-5.178265,0.971518,-8.229933,0.001388,0.001649,-0.000551,0.286647,0.997886,2.844677,780.06,42.30,highres
3.467730,16158194442,-5.177613,0.972928,-8.229826,0.000577,0.000236,0.000871,0.286647,0.997886,2.844677,780.06,42.30,highres
3.481325,16158200228,-5.179399,0.973091,-8.232327,0.000271,0.000727,0.001416,0.286647,0.997886,2.844677,780.06,42.30,highres
3.493759,16158212513,-5.167492,0.973912,-8.229934,0.001237,-0.000070,-0.000507,0.286647,0.997886,2.844677,780.07,42.30,highres
3.500361,16158230370,-5.172586,0.978484,-8.223949,0.001110,0.001629,0.000394,0.283263,0.998468,2.852277,780.07,42.30,highres
3.508878,16158235113,-5.184850,0.965529,-8.220957,0.000271,0.001332,-0.001141,0.283263,0.998468,2.852277,780.07,42.30,highres
3.517624,16158250076,-5.173478,0.983392,-8.225099,0.001567,0.002374,-0.000487,0.283263,0.998468,2.852277,780.07,42.30,highres
3.528682,16158259404,-5.175666,0.967298,-8.225616,0.001188,0.001763,0.000316,0.283263,0.998468,2.852277,780.07,42.30,highres
3.540817,16158269300,-5.182686,0.987263,-8.232327,0.001991,0.001232,-0.000689,0.283263,0.998468,2.852277,780.07,42.30,highres
3.549543,16158279367,-5.182341,0.974631,-8.238313,0.000028,0.001582,0.000017,0.283263,0.998468,2.852277,780.07,42.30,highres
3.558808,16158287086,-5.174168,0.982210,-8.229933,0.000271,0.000952,-0.001067,0.282537,0.993097,2.847352,780.07,42.30,highres
3.567617,16158296780,-5.176394,0.969909,-8.226865,0.000176,0.001658,-0.001162,0.282537,0.993097,2.847352,780.06,42.30,highres
3.576559,16158307147,-5.178265,0.964312,-8.228759,-0.000062,0.001330,0.000616,0.282537,0.993097,2.847352,780.06,42.30,highres
3.588866,16158317646,-5.178266,0.966753,-8.227290,-0.000950,0.000236,-0.000350,0.282537,0.993097,2.847352,780.06,42.30,highres
3.602092,16158322392,-5.175100,0.960318,-8.230947,-0.000988,0.000579,-0.000790,0.282537,0.993097,2.847352,780.06,42.30,highres
3.608374,16158329972,-5.173813,0.962697,-8.235918,-0.001134,0.001336,-0.000350,0.282537,0.993097,2.847352,780.06,42.30,highres
3.615328,16158339904,-5.167481,0.969158,-8.231771,-0.002451,0.001263,0.000150,0.282537,0.993097,2.847352,780.06,42.30,highres
3.627497,16158355429,-5.176446,0.971469,-8.228881,-0.001558,0.001608,-0.000656,0.282537,0.993097,2.847352,780.06,42.30,highres
3.634083,16158365351,-5.179962,0.975806,-8.227812,-0.001256,-0.001292,-0.000045,0.274131,0.993958,2.852135,780.06,42.30,highres
3.647926,16158369307,-5.182095,0.980615,-8.228497,-0.000034,0.000721,-0.001051,0.274131,0.993958,2.852135,780.05,42.30,highres
3.661307,16158382942,-5.182310,0.977018,-8.224465,-0.000031,0.001259,-0.000860,0.274131,0.993958,2.852135,780.05,42.30,highres
3.668556,16158395237,-5.173477,0.973912,-8.226341,0.001188,0.001256,-0.001371,0.274131,0.993958,2.852135,780.05,42.30,highres
3.681227,16158399420,-5.177832,0.963708,-8.229010,0.001493,0.001212,-0.001755,0.274131,0.993958,2.852135,780.05,42.30,highres
3.688449,16158414790,-5.173535,0.965252,-8.243043,0.001798,0.002679,-0.001878,0.274131,0.993958,2.852135,780.05,42.30,highres
3.701806,16158427431,-5.179462,0.970321,-8.239509,0.001361,0.000541,-0.002740,0.280137,0.986528,2.851250,780.05,42.30,highres
3.711259,16158437052,-5.168976,0.961397,-8.232119,0.001021,0.001902,-0.000572,0.280137,0.986528,2.851250,780.05,42.30,highres
3.716464,16158449900,-5.172585,0.976110,-8.229323,0.001057,0.002333,-0.000611,0.280137,0.986528,2.851250,780.05,42.30,highres
3.729824,16158458068,-5.171986,0.973244,-8.236012,0.001711,0.002347,0.000488,0.280137,0.986528,2.851250,780.06,42.30,highres
3.740742,16158466873,-5.172654,0.973968,-8.223317,0.002104,0.003263,0.000271,0.280137,0.986528,2.851250,780.06,42.30,highres
3.751350,16158477559,-5.176246,0.968015,-8.234727,0.001795,0.001885,-0.001102,0.280137,0.986528,2.851250,780.06,42.30,highres
3.758689,16158489745,-5.176387,0.976362,-8.233599,0.001798,0.001144,-0.000071,0.280137,0.986528,2.851250,780.06,42.30,highres
3.768071,16158500623,-5.174811,0.971758,-8.225647,0.000398,0.001939,-0.000875,0.280137,0.986528,2.851250,780.06,42.30,highres
3.781462,16158509685,-5.170929,0.972243,-8.234864,0.001322,0.000344,0.000271,0.289937,0.991806,2.840273,780.06,42.30,highres
3.791201,16158519809,-5.175874,0.971655,-8.241605,-0.001151,-0.000497,-0.000646,0.289937,0.991806,2.840273,780.06,42.30,highres
3.800960,16158527386,-5.167768,0.960369,-8.232657,-0.001842,-0.001098,-0.000035,0.289937,0.991806,2.840273,780.06,42.30,highres
3.807485,16158537171,-5.181112,0.966226,-8.230019,-0.002946,-0.001727,-0.000340,0.289937,0.991806,2.840273,780.06,42.30,highres
3.820239,16158547228,-5.174388,0.982305,-8.239292,-0.002965,0.000241,-0.000340,0.289937,0.991806,2.840273,780.06,42.30,highres
3.827642,16158552642,-5.172654,0.983961,-8.238832,-0.003781,-0.001815,-0.000536,0.289937,0.991806,2.840273,780.06,42.30,highres
3.839174,16158567618,-5.181485,0.955854,-8.244473,-0.002783,0.001125,0.001492,0.294954,0.989528,2.848996,780.06,42.30,highres
3.848542,16158577205,-5.174495,0.957239,-8.235319,-0.001242,-0.000381,0.001194,0.294954,0.989528,2.848996,780.06,42.30,highres
3.862417,16158590828,-5.168822,0.973315,-8.223318,-0.001306,-0.000384,0.001424,0.294954,0.989528,2.848996,780.06,42.30,highres
3.868991,16158594865,-5.186628,0.966733,-8.237058,-0.001369,0.000803,0.001492,0.294954,0.989528,2.848996,780.06,42.30,highres
3.882324,16158607252,-5.176786,0.973697,-8.222506,-0.000340,0.000820,0.000527,0.294954,0.989528,2.848996,780.06,42.30,highres
3.888156,16158617905,-5.184555,0.963617,-8.242259,-0.000410,0.000422,-0.000340,0.294954,0.989528,2.848996,780.05,42.30,highres
3.899781,16158625618,-5.181035,0.968933,-8.242784,-0.000436,-0.000033,-0.000357,0.294954,0.989528,2.848996,780.05,42.30,highres
3.907832,16158635585,-5.186375,0.981150,-8.230501,-0.000810,-0.000073,-0.001046,0.294954,0.989528,2.848996,780.05,42.30,highres
3.914485,16158645325,-5.176693,0.972844,-8.228333,-0.000034,-0.000096,-0.000035,0.288230,0.997551,2.852556,780.05,42.30,highres
3.929039,16158651026,-5.178133,0.977240,-8.217652,0.000576,0.001015,-0.000951,0.288230,0.997551,2.852556,780.05,42.30,highres
3.941296,16158660912,-5.189533,0.970318,-8.229754,0.000576,0.000820,-0.000035,0.288230,0.997551,2.852556,780.05,42.30,highres
3.948539,16158670328,-5.173852,0.964392,-8.230500,0.001187,0.002347,-0.001562,0.288230,0.997551,2.852556,780.05,42.30,highres
3.959565,16158686154,-5.177443,0.972771,-8.228106,0.001187,0.000568,-0.001257,0.288230,0.997551,2.852556,780.05,42.30,highres
3.968755,16158690111,-5.178849,0.973094,-8.222006,0.001187,0.001431,-0.000951,0.288230,0.997551,2.852556,780.05,42.30,highres
3.979624,16158699937,-5.169829,0.961134,-8.235720,-0.000145,0.001958,-0.000508,0.285541,0.991970,2.844649,780.05,42.30,highres
3.988705,16158710339,-5.182807,0.971130,-8.250140,-0.000211,-0.000128,-0.001514,0.285541,0.991970,2.844649,780.05,42.30,highres
4.000000,16158715637,-5.173851,0.974336,-8.243021,-0.000340,0.001125,-0.000035,0.285541,0.991970,2.844649,780.05,42.30,highres
4.009041,16158728677,-5.175049,0.963195,-8.229303,0.000764,0.000726,0.000881,0.285541,0.991970,2.844649,780.05,42.30,highres
4.020965,16158742963,-5.184274,0.966961,-8.225887,-0.000244,0.000706,0.001702,0.285541,0.991970,2.844649,780.05,42.30,highres
4.031300,16158753164,-5.182230,0.973968,-8.217333,0.000393,0.000637,0.001065,0.285541,0.991970,2.844649,780.05,42.30,highres
4.034142,16158765435,-5.182873,0.978756,-8.227784,-0.000500,0.000499,0.002569,0.285541,0.991970,2.844649,780.05,42.30,highres
4.048713,16158769442,-5.183698,0.966668,-8.227448,0.000290,-0.000240,0.001779,0.285541,0.991970,2.844649,780.06,42.30,highres
4.059789,16158779461,-5.175048,0.977559,-8.235288,-0.000467,0.000209,0.001059,0.291141,0.991581,2.848223,780.06,42.30,highres
4.066962,16158793437,-5.171457,0.987136,-8.241792,-0.000034,0.000467,0.001316,0.291141,0.991581,2.848223,780.06,42.30,highres
4.081119,16158797220,-5.176246,0.974687,-8.234434,0.000176,0.000536,0.001703,0.291141,0.991581,2.848223,780.06,42.30,highres
4.088303,16158809945,-5.177442,0.967983,-8.248723,-0.000198,-0.000707,0.000151,0.291141,0.991581,2.848223,780.06,42.30,highres
4.101955,16158815337,-5.179006,0.968349,-8.232598,-0.000445,-0.000707,0.000776,0.291141,0.991581,2.848223,780.06,42.30,highres
4.107991,16158836225,-5.178298,0.972497,-8.229589,0.000545,0.000157,-0.000043,0.291141,0.991581,2.848223,780.06,42.30,highres
4.115604,16158849976,-5.174819,0.965652,-8.231341,0.000581,0.000971,-0.001257,0.288999,0.993156,2.850990,780.06,42.30,highres
4.128447,16158855225,-5.190610,0.968535,-8.231238,0.001305,-0.000590,-0.000529,0.288999,0.993156,2.850990,780.06,42.30,highres
4.141057,16158866167,-5.175048,0.989530,-8.234092,0.000882,0.000820,-0.001257,0.288999,0.993156,2.850990,780.06,42.30,highres
4.148292,16158875316,-5.176246,0.970219,-8.235816,0.000576,0.001125,-0.000951,0.288999,0.993156,2.850990,780.06,42.30,highres
4.158830,16158880648,-5.180268,0.972866,-8.235477,0.002154,0.002424,-0.001002,0.288999,0.993156,2.850990,780.06,42.30,highres
4.167392,16158892611,-5.172337,0.961240,-8.233335,0.001408,0.000599,-0.000899,0.288999,0.993156,2.850990,780.06,42.30,highres
4.180013,16158897955,-5.179574,0.966522,-8.228004,0.000576,-0.000096,-0.001257,0.288999,0.993156,2.850990,780.06,42.30,highres
4.188593,16158911176,-5.185677,0.970666,-8.221647,0.002001,0.000617,-0.002037,0.288999,0.993156,2.850990,780.06,42.30,highres
4.199832,16158927583,-5.183254,0.964392,-8.227391,0.000350,0.000017,-0.001301,0.294892,0.989374,2.850463,780.06,42.30,highres
4.207298,16158932748,-5.193005,0.961997,-8.219728,0.000268,-0.000710,0.000576,0.294892,0.989374,2.850463,780.07,42.30,highres
4.220676,16158941802,-5.184318,0.973662,-8.232728,0.000576,-0.000707,0.000271,0.294892,0.989374,2.850463,780.07,42.30,highres
4.227570,16158954329,-5.184185,0.964482,-8.225848,0.000271,0.001736,0.001798,0.294892,0.989374,2.850463,780.07,42.30,highres
4.233078,16158960274,-5.178640,0.965589,-8.216136,0.000576,0.001179,0.002714,0.294892,0.989374,2.850463,780.07,42.30,highres
4.249515,16158976517,-5.178481,0.972196,-8.227815,0.000022,0.001509,0.003385,0.294892,0.989374,2.850463,780.07,42.30,highres
4.260273,16158983881,-5.182767,0.982017,-8.235744,-0.000435,0.002042,0.003820,0.290402,0.981819,2.848981,780.07,42.30,highres
4.260273,16158987929,-5.172574,0.984184,-8.229888,0.000271,0.001736,0.003019,0.290402,0.981819,2.848981,780.07,42.30,highres
4.260273,16159005836,-5.169064,0.970377,-8.220923,0.003325,0.002347,0.001798,0.290402,0.981819,2.848981,780.07,42.30,highres
4.260273,16159021064,-5.174046,0.983900,-8.218530,0.002995,0.004130,0.000576,0.290402,0.981819,2.848981,780.08,42.30,highres
4.301201,16159026805,-5.166669,0.979953,-8.228106,0.004853,0.006012,-0.000340,0.290402,0.981819,2.848981,780.08,42.30,highres
4.307350,16159038264,-5.170784,0.975165,-8.226909,0.002688,0.002931,-0.000951,0.290402,0.981819,2.848981,780.08,42.30,highres
4.314172,16159044060,-5.158936,0.980139,-8.229674,0.001351,0.000679,-0.002688,0.290402,0.981819,2.848981,780.08,42.30,highres
4.328095,16159055838,-5.162570,0.966278,-8.252735,-0.001163,-0.000790,-0.002867,0.290402,0.981819,2.848981,780.08,42.30,highres
4.340944,16159068415,-5.177566,0.962864,-8.231822,-0.003352,-0.002161,-0.003584,0.292025,0.996585,2.851246,780.08,42.30,highres
4.348849,16159074352,-5.185340,0.971091,-8.231233,-0.003394,-0.000916,-0.003186,0.292025,0.996585,2.851246,780.08,42.30,highres
4.359892,16159090975,-5.177288,0.974433,-8.227852,-0.004616,-0.002845,-0.001774,0.292025,0.996585,2.851246,780.08,42.30,highres
4.367840,16159095827,-5.174270,0.978128,-8.233447,-0.003826,-0.002288,-0.001814,0.292025,0.996585,2.851246,780.08,42.30,highres
4.381769,16159107750,-5.179226,0.973076,-8.212404,-0.000413,-0.001815,-0.000609,0.292025,0.996585,2.851246,780.08,42.30,highres
4.388496,16159113552,-5.185209,0.980741,-8.215931,0.000144,-0.002338,-0.002046,0.292025,0.996585,2.851246,780.08,42.30,highres
4.400418,16159125337,-5.195545,0.965295,-8.224368,0.001187,0.001125,-0.001257,0.292640,0.998421,2.850808,780.08,42.30,highres
4.407921,16159135286,-5.192463,0.981494,-8.229959,0.000733,0.002809,0.001028,0.292640,0.998421,2.850808,780.08,42.30,highres
4.419916,16159140838,-5.192617,0.973863,-8.224092,0.000702,0.002958,0.001079,0.292640,0.998421,2.850808,780.08,42.30,highres
4.428618,16159151605,-5.181224,0.964583,-8.239261,0.003655,0.002205,0.000388,0.292640,0.998421,2.850808,780.08,42.30,highres
4.432953,16159157665,-5.183861,0.973536,-8.230575,0.005286,0.001608,-0.000115,0.292640,0.998421,2.850808,780.08,42.30,highres
4.450776,16159173001,-5.179483,0.975587,-8.234792,0.003385,0.001736,0.000822,0.292640,0.998421,2.850808,780.07,42.65,highres
4.462172,16159184336,-5.176842,0.970384,-8.227818,0.002798,0.002820,0.000354,0.292640,0.998421,2.850808,780.07,42.65,highres
4.467525,16159195601,-5.176246,0.967983,-8.224515,0.003776,0.003005,-0.000373,0.292640,0.998421,2.850808,780.07,42.65,highres
4.481049,16159201375,-5.178058,0.964984,-8.225414,0.003936,0.003569,-0.000035,0.283027,0.994481,2.850773,780.07,42.65,highres
4.488514,16159210138,-5.171457,0.956526,-8.233067,0.002876,0.002831,-0.001095,0.283027,0.994481,2.850773,780.07,42.65,highres
4.502731,16159224299,-5.181881,0.965676,-8.249565,-0.000340,0.001125,-0.000951,0.283027,0.994481,2.850773,780.07,42.65,highres
4.507166,16159237787,-5.185868,0.957423,-8.250916,-0.002120,0.000249,0.000340,0.283027,0.994481,2.850773,780.07,42.65,highres
4.519114,16159247673,-5.185537,0.973427,-8.245150,-0.004694,-0.001772,0.001379,0.283027,0.994481,2.850773,780.07,42.65,highres
4.528297,16159259038,-5.166668,0.968074,-8.211992,-0.002885,-0.003171,0.003019,0.283027,0.994481,2.850773,780.06,43.00,highres
4.541457,16159270488,-5.176803,0.958406,-8.218530,0.005478,-0.004067,0.003474,0.280674,0.996147,2.850457,780.06,43.00,highres
4.549231,16159277059,-5.169185,0.975753,-8.217992,0.007444,-0.003930,0.003630,0.280674,0.996147,2.850457,780.06,43.00,highres
4.558011,16159287804,-5.171709,0.974913,-8.236296,0.007296,-0.001266,0.002854,0.280674,0.996147,2.850457,780.06,43.00,highres
4.568525,16159298289,-5.189835,0.968619,-8.221208,0.005249,0.002364,0.001781,0.280674,0.996147,2.850457,780.06,43.00,highres
4.581232,16159310808,-5.193548,0.962219,-8.234956,0.005048,0.003707,0.000743,0.280674,0.996147,2.850457,780.06,43.00,highres
4.592937,16159315265,-5.196595,0.965589,-8.240076,0.004547,0.005096,-0.000340,0.280674,0.996147,2.850457,780.06,43.00,highres
4.601109,16159326227,-5.186150,0.981585,-8.245299,0.002799,0.003848,0.000992,0.280674,0.996147,2.850457,780.06,43.00,highres
4.607334,16159341123,-5.183427,0.970764,-8.243527,0.001933,0.002922,0.000136,0.281799,0.993430,2.849356,780.07,43.00,highres
4.615583,16159346447,-5.173294,0.975378,-8.239518,0.001978,0.001790,-0.000826,0.281799,0.993430,2.849356,780.07,43.00,highres
4.628110,16159356784,-5.168515,0.981698,-8.227673,0.002017,0.000561,-0.001562,0.281799,0.993430,2.849356,780.07,43.00,highres
4.632267,16159364183,-5.172827,0.969636,-8.228390,0.002409,0.002916,-0.001780,0.281799,0.993430,2.849356,780.07,43.00,highres
4.649592,16159379085,-5.176246,0.965851,-8.225937,0.003087,0.002357,-0.002908,0.281799,0.993430,2.849356,780.07,43.00,highres
4.660066,16159388113,-5.178850,0.974414,-8.235220,0.002584,0.001386,-0.003660,0.281799,0.993430,2.849356,780.07,43.00,highres
4.667137,16159395671,-5.175867,0.967544,-8.244864,0.000673,0.001423,-0.004006,0.281799,0.993430,2.849356,780.07,43.00,highres
4.675525,16159406101,-5.172579,0.960139,-8.238268,-0.001249,0.000216,-0.002777,0.280524,0.997997,2.850820,780.07,43.00,highres
4.689166,16159415766,-5.185229,0.964985,-8.220920,-0.002936,0.000820,-0.002173,0.280524,0.997997,2.850820,780.07,43.00,highres
4.701154,16159428414,-5.169562,0.963396,-8.232588,-0.003267,-0.000886,-0.001867,0.280524,0.997997,2.850820,780.07,43.00,highres
4.707185,16159439790,-5.182013,0.968926,-8.237936,-0.002228,-0.000707,-0.001988,0.280524,0.997997,2.850820,780.07,43.00,highres
4.717583,16159443704,-5.183012,0.969180,-8.224204,-0.001774,0.000315,-0.000845,0.280524,0.997997,2.850820,780.07,43.00,highres
4.728541,16159453540,-5.193028,0.960214,-8.229255,-0.001429,0.001391,-0.000513,0.280524,0.997997,2.850820,780.07,43.00,highres
4.740892,16159468278,-5.189404,0.965157,-8.221076,-0.001885,0.000310,0.001204,0.280524,0.997997,2.850820,780.07,43.00,highres
4.749409,16159475899,-5.198180,0.960722,-8.222462,-0.000573,0.001587,0.001382,0.280524,0.997997,2.850820,780.07,43.00,highres
4.759717,16159485855,-5.186209,0.969232,-8.233524,0.001780,0.000473,0.003322,0.286563,0.985519,2.849405,780.07,43.00,highres
4.767251,16159495698,-5.179214,0.956702,-8.239960,0.003307,0.001399,0.003627,0.286563,0.985519,2.849405,780.07,43.00,highres
4.780969,16159508908,-5.185012,0.963222,-8.231205,0.002848,0.000282,0.002825,0.286563,0.985519,2.849405,780.06,43.00,highres
4.791480,16159513921,-5.184165,0.969933,-8.235919,0.002748,-0.000138,0.002495,0.286563,0.985519,2.849405,780.06,43.00,highres
4.800395,16159524586,-5.179216,0.988221,-8.234394,0.003613,0.000648,0.002414,0.286563,0.985519,2.849405,780.06,43.00,highres
4.809409,16159536416,-5.181057,0.973341,-8.223948,0.003307,0.002306,0.000267,0.286563,0.985519,2.849405,780.06,43.00,highres
4.820998,16159542302,-5.169946,0.976064,-8.228736,0.002696,0.001177,-0.000908,0.288498,0.989751,2.844039,780.06,43.00,highres
4.829042,16159554423,-5.176118,0.978964,-8.228054,0.003002,0.003051,-0.001825,0.288498,0.989751,2.844039,780.06,43.00,highres
4.832129,16159566560,-5.180224,0.978809,-8.239402,0.003202,0.002707,-0.002281,0.288498,0.989751,2.844039,780.06,43.00,highres
4.850983,16159576003,-5.180217,0.964617,-8.243612,0.001386,0.002051,-0.003054,0.288498,0.989751,2.844039,780.06,43.00,highres
4.860629,16159588356,-5.172246,0.972028,-8.227546,-0.001274,0.000373,-0.003396,0.288498,0.989751,2.844039,780.06,43.00,highres
4.867697,16159595726,-5.162824,0.966804,-8.231755,-0.001143,-0.000969,-0.003355,0.288498,0.989751,2.844039,780.06,43.00,highres
4.880887,16159606101,-5.173041,0.960853,-8.226342,-0.003412,-0.001665,-0.003093,0.288498,0.989751,2.844039,780.06,43.00,highres
4.890738,16159618363,-5.184833,0.976644,-8.227718,-0.002566,-0.000866,-0.001495,0.288498,0.989751,2.844039,780.06,43.00,highres
4.900760,16159625858,-5.191663,0.967904,-8.228868,-0.003751,-0.001121,-0.001565,0.285153,0.990779,2.853443,780.06,43.00,highres
4.908216,16159631260,-5.185944,0.960899,-8.226077,-0.004028,-0.001049,-0.000029,0.285153,0.990779,2.853443,780.06,43.00,highres
4.914002,16159645406,-5.185012,0.962130,-8.235200,-0.004329,-0.001128,0.000416,0.285153,0.990779,2.853443,780.06,43.00,highres
4.929624,16159651829,-5.178420,0.963837,-8.223323,-0.003880,-0.000586,0.001529,0.285153,0.990779,2.853443,780.06,43.00,highres
4.939968,16159662081,-5.179438,0.965568,-8.226379,-0.004741,0.000793,0.001581,0.285153,0.990779,2.853443,780.06,43.00,highres
4.949692,16159677962,-5.185224,0.971521,-8.225357,-0.001885,0.000997,0.002187,0.285153,0.990779,2.853443,780.06,43.00,highres
4.959591,16159688496,-5.192194,0.980006,-8.234722,-0.000663,0.002000,0.001180,0.287403,0.992855,2.846212,780.06,43.00,highres
4.967402,16159700106,-5.187773,0.969863,-8.236849,0.000786,0.001964,0.001106,0.287403,0.992855,2.846212,780.06,43.00,highres
4.980196,16159708308,-5.186634,0.970197,-8.246500,0.001810,0.001360,0.002238,0.287403,0.992855,2.846212,780.06,43.00,highres
4.987404,16159719268,-5.185309,0.976834,-8.234006,0.002425,0.001785,0.001761,0.287403,0.992855,2.846212,780.06,43.00,highres
5.000682,16159726256,-5.179728,0.977466,-8.219656,0.002696,-0.000258,0.001702,0.287403,0.992855,2.846212,780.06,43.00,highres
5.008760,16159736010,-5.168475,0.973399,-8.230554,0.001614,0.000019,-0.000038,0.287403,0.992855,2.846212,780.06,43.00,highres
5.021196,16159746932,-5.169451,0.963754,-8.231069,0.000558,0.001256,-0.001221,0.287403,0.992855,2.846212,780.06,43.00,highres
5.026964,16159752087,-5.169451,0.972823,-8.237116,0.001667,0.000700,-0.002787,0.287403,0.992855,2.846212,780.06,43.00,highres
5.032458,16159761997,-5.174238,0.959198,-8.239967,0.000558,0.002262,-0.001376,0.287212,0.996923,2.850121,780.06,43.00,highres
5.049433,16159771379,-5.171772,0.959706,-8.233989,0.000558,0.000939,-0.001886,0.287212,0.996923,2.850121,780.06,43.00,highres
5.061007,16159781927,-5.171463,0.970892,-8.229851,-0.001580,0.001695,-0.000954,0.287212,0.996923,2.850121,780.06,43.00,highres
5.067496,16159786006,-5.173588,0.971249,-8.226907,-0.000412,0.001874,-0.001027,0.287212,0.996923,2.850121,780.06,43.00,highres
5.076726,16159796134,-5.187407,0.959656,-8.227539,-0.000663,0.000473,-0.002482,0.287212,0.996923,2.850121,780.06,43.00,highres
5.086982,16159805999,-5.179900,0.980006,-8.226018,0.000253,0.001695,-0.002787,0.287212,0.996923,2.850121,780.07,43.00,highres
5.101016,16159816051,-5.177830,0.969232,-8.231132,-0.000006,0.002741,-0.001954,0.290502,0.992738,2.848580,780.07,43.00,highres
5.108377,16159827130,-5.170647,0.968035,-8.231130,0.000558,0.002611,-0.000649,0.290502,0.992738,2.848580,780.07,43.00,highres
5.115723,16159837050,-5.182796,0.975039,-8.235561,0.001169,0.002917,-0.002176,0.290502,0.992738,2.848580,780.07,43.00,highres
5.127654,16159848869,-5.190856,0.971485,-8.241620,0.000065,0.002611,-0.001825,0.290502,0.992738,2.848580,780.07,43.00,highres
5.141302,16159858791,-5.183958,0.973591,-8.239894,-0.000472,0.002803,-0.000494,0.290502,0.992738,2.848580,780.07,43.00,highres
5.147570,16159884062,-5.179532,0.968678,-8.235023,-0.001111,0.001706,0.000260,0.290502,0.992738,2.848580,780.07,43.00,highres
5.158243,16159888552,-5.185678,0.970099,-8.224214,-0.000952,0.001322,0.001862,0.290502,0.992738,2.848580,780.07,43.00,highres
5.167812,16159898723,-5.182752,0.967984,-8.235279,-0.000969,0.000473,0.000878,0.296331,0.991942,2.842730,780.07,43.00,highres
5.177341,16159905199,-5.174238,0.969232,-8.229933,-0.001533,0.001965,0.001489,0.296331,0.991942,2.842730,780.07,43.00,highres
5.188411,16159917213,-5.179855,0.978348,-8.220357,-0.000358,0.001710,0.000408,0.296331,0.991942,2.842730,780.07,43.00,highres
5.200970,16159926162,-5.178679,0.962050,-8.234873,-0.000052,0.002741,0.000187,0.296331,0.991942,2.842730,780.07,43.00,highres
5.207424,16159938872,-5.174513,0.968035,-8.241649,0.000458,0.003902,-0.001395,0.296331,0.991942,2.842730,780.07,43.00,highres
5.221181,16159948976,-5.174905,0.974282,-8.241903,-0.000036,0.001839,-0.000954,0.296331,0.991942,2.842730,780.07,43.00,highres
5.228354,16159954922,-5.175082,0.975061,-8.237469,-0.000358,0.001389,-0.000955,0.296331,0.991942,2.842730,780.07,43.00,highres
5.232557,16159961777,-5.171555,0.962463,-8.228735,-0.000269,0.002611,-0.002246,0.292864,0.984348,2.849437,780.07,43.00,highres
5.251023,16159976307,-5.173910,0.963892,-8.226342,0.000377,0.002611,-0.001928,0.292864,0.984348,2.849437,780.07,43.00,highres
5.261074,16159988770,-5.185858,0.966662,-8.228209,0.001313,0.001884,-0.002176,0.292864,0.984348,2.849437,780.07,43.00,highres
5.261074,16159996120,-5.178376,0.977007,-8.238301,0.002879,0.002429,-0.002541,0.292864,0.984348,2.849437,780.07,43.00,highres
5.261074,16160006530,-5.174238,0.959656,-8.229933,0.002696,0.003416,-0.001982,0.292864,0.984348,2.849437,780.07,43.00,highres
5.261074,16160012389,-5.175028,0.957541,-8.230188,0.002839,0.003690,-0.002319,0.292864,0.984348,2.849437,780.07,43.00,highres
5.301842,16160024750,-5.179541,0.964613,-8.242075,0.001694,0.003003,-0.000539,0.292864,0.984348,2.849437,780.07,43.00,highres
5.308805,16160034364,-5.180433,0.963171,-8.245001,0.001780,0.001084,-0.000649,0.292864,0.984348,2.849437,780.07,43.00,highres
5.314825,16160042665,-5.168551,0.966540,-8.225444,0.000864,0.001695,-0.001871,0.291872,0.987431,2.848334,780.07,43.00,highres
5.329498,16160046129,-5.168873,0.969852,-8.231089,0.000626,0.000660,-0.001277,0.291872,0.987431,2.848334,780.06,43.00,highres
5.339798,16160069127,-5.173041,0.962630,-8.229280,0.000864,0.001389,0.000573,0.291872,0.987431,2.848334,780.06,43.00,highres
5.347700,16160077214,-5.174239,0.964444,-8.220358,0.000664,0.000895,0.001184,0.291872,0.987431,2.848334,780.06,43.00,highres
5.358578,16160085606,-5.181778,0.970154,-8.237583,0.000864,0.000168,0.000878,0.291872,0.987431,2.848334,780.06,43.00,highres
5.369788,16160097459,-5.171844,0.967317,-8.230890,0.001414,0.000962,0.000634,0.291872,0.987431,2.848334,780.06,43.00,highres
5.376724,16160106408,-5.176632,0.970429,-8.232327,0.000558,0.001084,0.000573,0.290105,0.990618,2.845912,780.06,43.00,highres
5.388464,16160117359,-5.167057,0.975218,-8.243101,0.000717,0.000315,0.000867,0.290105,0.990618,2.845912,780.06,43.00,highres
5.400524,16160122100,-5.172995,0.971720,-8.233712,0.000116,0.001232,-0.000038,0.290105,0.990618,2.845912,780.06,43.00,highres
5.407942,16160136610,-5.184473,0.961091,-8.224487,-0.001442,-0.000168,-0.000817,0.290105,0.990618,2.845912,780.07,43.00,highres
5.420445,16160146863,-5.183815,0.971626,-8.225146,-0.001274,0.001084,0.000267,0.290105,0.990618,2.845912,780.07,43.00,highres
5.427235,16160156103,-5.169450,0.968220,-8.242548,-0.001694,-0.000138,-0.000152,0.290105,0.990618,2.845912,780.07,43.00,highres
5.433438,16160170119,-5.176633,0.967630,-8.222622,-0.000969,-0.000443,-0.000599,0.290105,0.990618,2.845912,780.07,43.00,highres
5.448237,16160176946,-5.182692,0.968035,-8.236119,-0.001757,-0.000990,0.000331,0.290105,0.990618,2.845912,780.07,43.00,highres
5.461240,16160186645,-5.171844,0.960853,-8.247890,-0.001274,0.000168,-0.000344,0.289187,0.991283,2.847164,780.07,43.00,highres
5.469655,16160198698,-5.179977,0.967542,-8.230427,-0.001358,0.001195,-0.001038,0.289187,0.991283,2.847164,780.07,43.00,highres
5.476245,16160211928,-5.169996,0.969884,-8.225799,-0.002426,-0.000679,0.000031,0.289187,0.991283,2.847164,780.07,43.00,highres
5.493367,16160216226,-5.172338,0.972538,-8.231757,-0.001991,-0.000622,-0.001565,0.289187,0.991283,2.847164,780.07,43.00,highres
5.501023,16160227077,-5.176633,0.970429,-8.220358,-0.000969,-0.000749,-0.002176,0.289187,0.991283,2.847164,780.07,43.00,highres
5.508600,16160236905,-5.185719,0.967664,-8.234553,-0.000874,0.000640,-0.001449,0.289187,0.991283,2.847164,780.07,43.00,highres
5.520663,16160246511,-5.177012,0.975952,-8.216304,-0.000851,0.000731,-0.001731,0.293520,0.995814,2.850553,780.07,43.00,highres
5.530795,16160257142,-5.189784,0.954619,-8.237831,-0.001490,0.000384,-0.002571,0.293520,0.995814,2.850553,780.07,43.00,highres
5.542044,16160268955,-5.176469,0.965165,-8.238952,-0.001253,0.000026,-0.000976,0.293520,0.995814,2.850553,780.07,43.00,highres
5.549084,16160274503,-5.175281,0.967514,-8.233003,-0.000358,0.000567,-0.001127,0.293520,0.995814,2.850553,780.07,43.00,highres
5.560038,16160286702,-5.189399,0.966031,-8.233127,-0.000358,-0.000635,0.000120,0.293520,0.995814,2.850553,780.07,43.00,highres
5.568200,16160299078,-5.178076,0.976907,-8.234230,-0.000052,0.000329,0.000573,0.293520,0.995814,2.850553,780.07,43.00,highres
5.581043,16160304646,-5.190345,0.983009,-8.225190,0.000452,0.001462,0.000267,0.293520,0.995814,2.850553,780.07,43.00,highres
5.588602,16160316706,-5.178620,0.972418,-8.226906,0.002013,0.001623,0.000573,0.293520,0.995814,2.850553,780.07,43.00,highres
5.599600,16160331522,-5.193917,0.966750,-8.220592,0.002734,0.003356,0.000573,0.285682,0.990679,2.847564,780.07,43.00,highres
5.607971,16160336060,-5.183004,0.966149,-8.221858,0.002672,0.002801,-0.000203,0.285682,0.990679,2.847564,780.07,43.00,highres
5.620509,16160346215,-5.169388,0.973390,-8.222184,0.002850,0.003376,-0.000650,0.285682,0.990679,2.847564,780.07,43.00,highres
5.627194,16160356303,-5.166702,0.974047,-8.233932,0.002391,0.002306,-0.002482,0.285682,0.990679,2.847564,780.07,43.00,highres
5.637797,16160366538,-5.166420,0.963247,-8.238949,0.001475,0.002306,-0.001565,0.285682,0.990679,2.847564,780.07,43.00,highres
5.649482,16160371612,-5.165926,0.969232,-8.240772,0.001153,0.001951,0.000251,0.285682,0.990679,2.847564,780.08,43.00,highres
5.660207,16160385131,-5.170645,0.964440,-8.249092,-0.000968,0.000625,-0.000955,0.288993,0.997687,2.850366,780.08,43.00,highres
5.668260,16160395502,-5.179028,0.969232,-8.232327,-0.002496,0.002000,0.000267,0.288993,0.997687,2.850366,780.08,43.00,highres
5.679699,16160407257,-5.181421,0.968083,-8.225334,-0.001580,0.001231,-0.000344,0.288993,0.997687,2.850366,780.08,43.00,highres
5.688053,16160416623,-5.181027,0.965793,-8.232812,-0.000826,0.002306,-0.000730,0.288993,0.997687,2.850366,780.08,43.00,highres
5.701485,16160429719,-5.181217,0.973728,-8.234111,0.000855,0.003048,-0.000501,0.288993,0.997687,2.850366,780.08,43.00,highres
5.707962,16160434239,-5.171844,0.971110,-8.219270,0.000864,0.004420,-0.000471,0.288993,0.997687,2.850366,780.08,43.00,highres
5.720918,16160446504,-5.184007,0.982400,-8.231945,0.003161,0.004138,-0.000796,0.288993,0.997687,2.850366,780.08,43.00,highres
5.728440,16160456783,-5.180449,0.972123,-8.239714,0.001417,0.002974,-0.001813,0.288993,0.997687,2.850366,780.07,43.00,highres
5.741130,16160462177,-5.178916,0.969485,-8.239763,0.000558,0.002611,-0.001260,0.290953,0.994513,2.852554,780.07,43.00,highres
5.748028,16160472204,-5.186051,0.965138,-8.235648,0.000339,0.002660,-0.002802,0.290953,0.994513,2.852554,780.07,43.00,highres
5.760585,16160484436,-5.180461,0.969270,-8.242301,0.000840,0.002038,-0.002422,0.290953,0.994513,2.852554,780.07,43.00,highres
5.768105,16160494923,-5.187644,0.965679,-8.231527,0.000840,0.001663,-0.002191,0.290953,0.994513,2.852554,780.07,43.00,highres
5.781346,16160507473,-5.188842,0.957299,-8.229134,-0.000704,0.001523,-0.001729,0.290953,0.994513,2.852554,780.07,43.00,highres
5.792149,16160516627,-5.178805,0.969159,-8.241048,0.001000,0.001635,-0.001101,0.290953,0.994513,2.852554,780.07,43.00,highres
5.801775,16160527698,-5.182857,0.956103,-8.237514,-0.002520,0.001663,-0.000970,0.290402,0.991152,2.847209,780.07,43.00,highres
5.807868,16160537083,-5.184054,0.966876,-8.230330,-0.000687,0.001052,-0.001580,0.290402,0.991152,2.847209,780.07,43.00,highres
5.819556,16160542160,-5.185220,0.961048,-8.242617,-0.000705,0.001663,-0.000987,0.290402,0.991152,2.847209,780.07,43.00,highres
5.831047,16160557482,-5.179209,0.965679,-8.234629,-0.000076,0.001593,-0.000789,0.290402,0.991152,2.847209,780.07,43.00,highres
5.832478,16160566837,-5.172970,0.980199,-8.238400,-0.000515,0.001304,-0.000014,0.290402,0.991152,2.847209,780.07,43.00,highres
5.848819,16160579555,-5.178824,0.967132,-8.245136,0.001225,0.003688,-0.000326,0.290402,0.991152,2.847209,780.07,43.00,highres
5.860056,16160585625,-5.174925,0.959245,-8.231226,0.001145,0.001332,-0.000804,0.290402,0.991152,2.847209,780.07,43.00,highres
5.867226,16160595154,-5.170886,0.978935,-8.245360,-0.000382,0.002579,-0.000664,0.290402,0.991152,2.847209,780.07,43.00,highres
5.881465,16160604545,-5.176385,0.970443,-8.235534,0.001988,0.003548,-0.001454,0.290019,0.992106,2.849041,780.07,43.00,highres
5.891581,16160615453,-5.172161,0.977996,-8.234851,0.000706,0.002579,-0.002057,0.290019,0.992106,2.849041,780.06,43.00,highres
5.900482,16160625093,-5.185250,0.958496,-8.232722,0.000781,0.002885,-0.001521,0.290019,0.992106,2.849041,780.06,43.00,highres
5.907806,16160635659,-5.174478,0.965679,-8.237513,0.001756,0.001066,-0.001025,0.290019,0.992106,2.849041,780.06,43.00,highres
5.919472,16160639565,-5.169690,0.969961,-8.228553,0.002367,0.001358,-0.001580,0.290019,0.992106,2.849041,780.06,43.00,highres
5.927066,16160652198,-5.181639,0.966856,-8.234149,-0.000243,0.000580,-0.002052,0.290019,0.992106,2.849041,780.06,43.00,highres
5.940403,16160662407,-5.183108,0.969742,-8.236281,-0.000993,0.001358,-0.000543,0.288381,0.992422,2.842566,780.06,43.00,highres
5.947687,16160672453,-5.180964,0.963633,-8.231889,-0.000987,-0.000170,-0.000509,0.288381,0.992422,2.842566,780.06,43.00,highres
5.959419,16160677536,-5.191692,0.970580,-8.231812,-0.001443,0.000293,0.000403,0.288381,0.992422,2.842566,780.06,43.00,highres
5.966934,16160694580,-5.181659,0.960891,-8.232724,-0.002091,-0.000170,0.000499,0.288381,0.992422,2.842566,780.06,43.00,highres
5.981622,16160704617,-5.170470,0.958485,-8.235106,-0.001600,0.000433,0.000657,0.288381,0.992422,2.842566,780.06,43.00,highres
5.987640,16160714943,-5.178224,0.963639,-8.227249,-0.000076,0.001052,0.000558,0.288381,0.992422,2.842566,780.06,43.00,highres
5.993208,16160729558,-5.179265,0.964482,-8.235119,-0.000848,0.000296,0.000863,0.288381,0.992422,2.842566,780.06,43.00,highres
6.008638,16160739695,-5.170197,0.972316,-8.243606,-0.000835,-0.000012,0.000400,0.288381,0.992422,2.842566,780.06,43.00,highres
6.020548,16160744754,-5.164234,0.974452,-8.249484,0.000535,-0.000305,0.001203,0.289006,0.991908,2.844030,780.06,43.00,highres
6.027344,16160754747,-5.175101,0.980981,-8.224396,-0.000993,-0.000311,0.000206,0.289006,0.991908,2.844030,780.06,43.00,highres
6.037858,16160765498,-5.165894,0.963344,-8.235703,-0.000687,0.000441,-0.001275,0.289006,0.991908,2.844030,780.06,43.00,highres
6.049196,16160774892,-5.170026,0.964390,-8.243559,0.002526,0.001798,-0.000200,0.289006,0.991908,2.844030,780.06,43.00,highres
6.058100,16160786934,-5.180462,0.964482,-8.237513,0.000020,0.000441,-0.000798,0.289006,0.991908,2.844030,780.07,43.00,highres
6.067693,16160793257,-5.184312,0.969108,-8.232887,-0.000850,0.001052,-0.000990,0.289006,0.991908,2.844030,780.07,43.00,highres
6.080693,16160809658,-5.180897,0.956212,-8.236971,-0.001020,-0.000975,0.000863,0.283793,0.988124,2.846408,780.07,43.00,highres
6.089494,16160814462,-5.175674,0.958497,-8.233920,-0.001298,-0.001086,0.001168,0.283793,0.988124,2.846408,780.07,43.00,highres
6.100216,16160822683,-5.173280,0.962088,-8.226739,-0.002214,-0.001697,0.000342,0.283793,0.988124,2.846408,780.07,43.00,highres
6.108340,16160827915,-5.172637,0.965302,-8.228667,-0.001603,-0.002002,0.000252,0.283793,0.988124,2.846408,780.07,43.00,highres
6.120122,16160843514,-5.181660,0.964482,-8.236315,0.000840,0.000136,0.000863,0.283793,0.988124,2.846408,780.07,43.00,highres
6.127777,16160855274,-5.174477,0.963805,-8.233191,0.000351,0.001337,0.000415,0.283793,0.988124,2.846408,780.07,43.00,highres
6.139868,16160864823,-5.178694,0.966322,-8.236279,0.001298,0.001968,0.001168,0.283793,0.988124,2.846408,780.07,43.00,highres
6.148581,16160873472,-5.170987,0.971440,-8.216838,0.000229,0.002274,0.000558,0.283793,0.988124,2.846408,780.07,43.00,highres
6.159260,16160877899,-5.165499,0.972860,-8.233919,0.000535,0.001663,0.000252,0.289182,0.997633,2.850197,780.07,43.00,highres
6.168961,16160895357,-5.171172,0.956025,-8.244277,-0.000210,0.001529,0.000022,0.289182,0.997633,2.850197,780.07,43.00,highres
6.181180,16160905280,-5.172904,0.966055,-8.226108,-0.000382,0.001358,-0.000970,0.289182,0.997633,2.850197,780.07,43.00,highres
6.187266,16160909963,-5.176872,0.969884,-8.230330,-0.000510,0.000651,0.001040,0.289182,0.997633,2.850197,780.07,43.00,highres
6.200611,16160915269,-5.175674,0.974176,-8.231956,0.000229,0.001052,-0.000664,0.289182,0.997633,2.850197,780.07,43.00,highres
6.208048,16160929803,-5.169689,0.963285,-8.217163,0.001266,0.001358,0.000494,0.289182,0.997633,2.850197,780.07,43.00,highres
6.221626,16160934985,-5.161865,0.969740,-8.222037,0.001569,0.001899,-0.000900,0.284605,0.988982,2.845233,780.07,43.00,highres
6.228650,16160947349,-5.164325,0.965149,-8.236362,0.002062,0.002699,-0.001722,0.284605,0.988982,2.845233,780.07,43.00,highres
6.239940,16160957641,-5.171000,0.963285,-8.240362,0.001598,0.002749,-0.003096,0.284605,0.988982,2.845233,780.07,43.00,highres
6.249096,16160974591,-5.171461,0.966131,-8.239949,0.000833,0.001397,-0.002123,0.284605,0.988982,2.845233,780.07,43.00,highres
6.259820,16160990550,-5.179826,0.969709,-8.246530,-0.000799,-0.001971,-0.001886,0.284605,0.988982,2.845233,780.07,43.00,highres
6.262738,16160997481,-5.178896,0.976912,-8.239266,-0.000593,-0.000735,-0.002286,0.284605,0.988982,2.845233,780.07,43.00,highres
6.262738,16161006227,-5.179603,0.960007,-8.230850,-0.002565,-0.000475,-0.000751,0.284605,0.988982,2.845233,780.07,43.00,highres
6.262738,16161020333,-5.175869,0.967232,-8.225090,-0.000834,0.000307,-0.000053,0.284605,0.988982,2.845233,780.07,43.00,highres
6.262738,16161027585,-5.184053,0.962541,-8.228647,-0.001438,0.000327,-0.000524,0.287787,0.993793,2.847508,780.07,43.00,highres
6.308154,16161037343,-5.171291,0.974462,-8.233753,-0.000920,0.001823,-0.001115,0.287787,0.993793,2.847508,780.07,43.00,highres
6.314276,16161050527,-5.174631,0.969385,-8.223881,0.000692,0.002412,-0.000960,0.287787,0.993793,2.847508,780.07,43.00,highres
6.328117,16161054890,-5.177908,0.969987,-8.215165,0.000188,0.002233,-0.001184,0.287787,0.993793,2.847508,780.07,43.00,highres
6.339772,16161067373,-5.182381,0.959959,-8.243306,0.000130,0.000434,-0.000863,0.287787,0.993793,2.847508,780.07,43.00,highres
6.348821,16161076220,-5.187272,0.968112,-8.258805,0.001050,0.000852,0.000758,0.287787,0.993793,2.847508,780.07,43.00,highres
6.360257,16161088422,-5.177577,0.970142,-8.232344,0.000451,0.000330,0.001363,0.295319,0.995929,2.849440,780.07,43.00,highres
6.367374,16161100487,-5.169690,0.973299,-8.238221,-0.000277,0.000582,0.001921,0.295319,0.995929,2.849440,780.07,43.00,highres
6.380755,16161110804,-5.170031,0.961746,-8.238196,0.001145,0.002056,0.000689,0.295319,0.995929,2.849440,780.07,43.00,highres
6.391706,16161115034,-5.171016,0.963379,-8.228683,0.000769,0.001571,0.000934,0.295319,0.995929,2.849440,780.07,43.00,highres
6.401828,16161130075,-5.174477,0.973288,-8.232038,0.001145,0.001329,0.000448,0.295319,0.995929,2.849440,780.07,43.00,highres
6.408131,16161134992,-5.176251,0.976163,-8.237594,0.001671,0.001663,-0.000811,0.295319,0.995929,2.849440,780.07,43.00,highres
6.420889,16161144731,-5.164076,0.967098,-8.229283,0.002424,0.001052,-0.002067,0.295319,0.995929,2.849440,780.07,43.00,highres
6.427960,16161153653,-5.190039,0.966288,-8.230393,0.001756,0.000747,-0.001275,0.295319,0.995929,2.849440,780.07,43.00,highres
6.436152,16161157602,-5.181801,0.964015,-8.229600,0.000840,0.001052,-0.000664,0.287026,0.993070,2.854393,780.07,43.00,highres
6.448231,16161170939,-5.177139,0.961693,-8.235641,0.001621,0.001426,-0.000664,0.287026,0.993070,2.854393,780.06,43.00,highres
6.460732,16161175265,-5.169888,0.971996,-8.237247,0.001451,0.002274,-0.001580,0.287026,0.993070,2.854393,780.06,43.00,highres
6.468039,16161191306,-5.169689,0.960891,-8.235119,-0.000382,-0.000475,-0.000359,0.287026,0.993070,2.854393,780.06,43.00,highres
6.482000,16161199896,-5.174040,0.972020,-8.239098,0.000229,-0.000170,-0.000664,0.287026,0.993070,2.854393,780.06,43.00,highres
6.493093,16161210416,-5.161729,0.971142,-8.239754,-0.000889,0.000953,-0.000664,0.287026,0.993070,2.854393,780.06,43.00,highres
6.502733,16161220328,-5.168075,0.968436,-8.231111,-0.000382,-0.000170,0.000558,0.290010,0.988732,2.847453,780.06,43.00,highres
6.508203,16161240639,-5.177922,0.961223,-8.240113,-0.002057,-0.000092,0.000080,0.290010,0.988732,2.847453,780.06,43.00,highres
6.513630,16161247583,-5.178475,0.964998,-8.240257,-0.002358,-0.000331,-0.000215,0.290010,0.988732,2.847453,780.06,43.00,highres
6.528829,16161258751,-5.182674,0.975620,-8.234064,-0.002357,0.000787,0.000252,0.290010,0.988732,2.847453,780.06,42.30,highres
6.541019,16161267542,-5.183945,0.976561,-8.228698,-0.001352,0.000747,0.001779,0.290010,0.988732,2.847453,780.06,42.30,highres
6.548907,16161275087,-5.186722,0.977100,-8.229045,-0.001110,0.000206,-0.000123,0.290010,0.988732,2.847453,780.06,42.30,highres
6.553073,16161285104,-5.160539,0.968093,-8.239948,0.000234,0.000659,-0.000664,0.290010,0.988732,2.847453,780.06,42.30,highres
6.569939,16161297996,-5.169939,0.973112,-8.242069,-0.000374,0.000270,0.000699,0.290010,0.988732,2.847453,780.06,42.30,highres
6.581028,16161307732,-5.175830,0.983508,-8.247751,0.000808,0.000441,0.000220,0.286324,0.988974,2.843000,780.06,42.30,highres
6.588726,16161315608,-5.172224,0.964341,-8.246385,0.001343,0.000262,-0.000790,0.286324,0.988974,2.843000,780.06,42.30,highres
6.601200,16161325885,-5.176871,0.966876,-8.233921,0.000229,0.001663,-0.000053,0.286324,0.988974,2.843000,780.06,42.30,highres
6.607961,16161330872,-5.177794,0.969054,-8.236531,-0.000076,-0.001086,-0.000414,0.286324,0.988974,2.843000,780.06,42.30,highres
6.619743,16161345207,-5.174478,0.965679,-8.238708,-0.000382,0.000441,-0.000053,0.286324,0.988974,2.843000,780.06,42.30,highres
6.627662,16161350523,-5.175989,0.967033,-8.227622,-0.000368,0.000615,-0.000199,0.286324,0.988974,2.843000,780.06,42.30,highres
6.632044,16161366582,-5.180462,0.966876,-8.221951,-0.000076,0.000441,-0.000359,0.291333,0.994439,2.843713,780.06,42.30,highres
6.648792,16161372441,-5.178450,0.966672,-8.236901,0.000535,0.002572,-0.000865,0.291333,0.994439,2.843713,780.06,42.30,highres
6.660494,16161388229,-5.167421,0.968073,-8.226048,0.000655,0.000534,-0.000331,0.291333,0.994439,2.843713,780.06,42.30,highres
6.669124,16161393718,-5.166339,0.966996,-8.242422,0.000287,0.000403,-0.000836,0.291333,0.994439,2.843713,780.06,42.30,highres
6.677034,16161406059,-5.182857,0.965679,-8.254272,-0.000845,0.000147,-0.000201,0.291333,0.994439,2.843713,780.06,42.30,highres
6.690822,16161420646,-5.178698,0.977266,-8.228686,-0.001539,-0.000593,0.000681,0.291333,0.994439,2.843713,780.06,42.30,highres
6.693288,16161425749,-5.179909,0.966472,-8.232784,-0.002118,-0.000475,0.000959,0.291333,0.994439,2.843713,780.06,42.30,highres
6.709555,16161435258,-5.175674,0.965679,-8.231526,-0.000993,0.000441,0.000558,0.291333,0.994439,2.843713,780.06,42.30,highres
6.715995,16161444819,-5.176093,0.970676,-8.219557,-0.000382,-0.000170,0.001168,0.280575,0.988763,2.849995,780.06,42.30,highres
6.727062,16161450390,-5.184053,0.964482,-8.225542,0.000173,0.002047,0.000614,0.280575,0.988763,2.849995,780.06,42.30,highres
6.739759,16161461318,-5.175293,0.975323,-8.229759,-0.000076,0.001052,0.000252,0.280575,0.988763,2.849995,780.06,42.30,highres
6.748078,16161470556,-5.174764,0.972575,-8.232324,0.000535,0.002746,0.000530,0.280575,0.988763,2.849995,780.06,42.30,highres
6.760474,16161481536,-5.186474,0.969274,-8.237524,0.000639,0.001135,-0.000563,0.280575,0.988763,2.849995,780.06,42.30,highres
6.767235,16161493379,-5.180120,0.972035,-8.236789,-0.000255,0.001334,-0.001477,0.280575,0.988763,2.849995,780.06,42.30,highres
6.780881,16161505832,-5.176897,0.978850,-8.225552,0.001049,0.000206,-0.000231,0.287561,0.991285,2.844795,780.06,42.30,highres
6.788147,16161515368,-5.173464,0.964192,-8.230926,0.000958,0.000112,-0.001015,0.287561,0.991285,2.844795,780.06,42.30,highres
6.801012,16161520766,-5.170668,0.971898,-8.229386,0.001449,0.001196,-0.002152,0.287561,0.991285,2.844795,780.06,42.30,highres
6.807429,16161533192,-5.162020,0.949098,-8.224866,0.000532,0.001028,-0.000043,0.287561,0.991285,2.844795,780.06,42.30,highres
6.820001,16161547947,-5.169342,0.966808,-8.228226,0.000091,0.001238,-0.000427,0.287561,0.991285,2.844795,780.06,42.30,highres
6.827293,16161558595,-5.179641,0.963839,-8.227744,-0.000168,0.001245,-0.000311,0.287561,0.991285,2.844795,780.06,42.30,highres
6.838600,16161566142,-5.179291,0.957303,-8.236181,-0.001115,0.001028,-0.001092,0.287561,0.991285,2.844795,780.06,42.30,highres
6.847225,16161575591,-5.185892,0.959686,-8.230979,-0.000844,-0.000807,-0.000352,0.287561,0.991285,2.844795,780.06,42.30,highres
6.860099,16161588426,-5.178823,0.976714,-8.234167,0.000429,-0.002125,0.000060,0.286818,0.987179,2.845237,780.06,42.30,highres
6.866896,16161597966,-5.184079,0.979030,-8.232226,0.000428,-0.000362,0.000938,0.286818,0.987179,2.845237,780.06,42.30,highres
6.882100,16161606531,-5.182196,0.961069,-8.236837,0.000329,0.000316,0.000262,0.286818,0.987179,2.845237,780.06,42.30,highres
6.888332,16161612697,-5.184080,0.965682,-8.233932,0.000532,-0.001720,0.001789,0.286818,0.987179,2.845237,780.06,42.30,highres
6.899880,16161625568,-5.183712,0.960041,-8.232663,-0.001506,0.000418,0.002606,0.286818,0.987179,2.845237,780.06,42.30,highres
6.908431,16161635360,-5.168518,0.980047,-8.235128,-0.001300,-0.001415,0.001789,0.286818,0.987179,2.845237,780.06,42.30,highres
6.919848,16161645475,-5.177255,0.978875,-8.238338,-0.002522,-0.001415,0.002192,0.294195,0.990043,2.846758,780.06,42.30,highres
6.927847,16161657257,-5.170324,0.974944,-8.233501,-0.001225,-0.001225,0.000758,0.294195,0.990043,2.846758,780.06,42.30,highres
6.931922,16161668426,-5.181655,0.964844,-8.229906,0.001038,-0.001112,0.000670,0.294195,0.990043,2.846758,780.06,42.30,highres
6.948680,16161677892,-5.184875,0.967682,-8.233918,0.002466,-0.001007,0.000364,0.294195,0.990043,2.846758,780.06,42.30,highres
6.958577,16161688406,-5.180489,0.968845,-8.233307,0.000703,-0.000950,-0.000007,0.294195,0.990043,2.846758,780.06,42.30,highres
6.968260,16161698349,-5.182011,0.963940,-8.225269,0.000988,0.001256,-0.000732,0.294195,0.990043,2.846758,780.06,42.30,highres
6.975254,16161704004,-5.181109,0.965722,-8.221968,0.002213,0.001484,-0.000962,0.294195,0.990043,2.846758,780.06,42.30,highres
6.988247,16161718131,-5.182227,0.962632,-8.227290,0.002927,0.002201,-0.001758,0.294195,0.990043,2.846758,780.06,42.30,highres
7.002436,16161725551,-5.174420,0.969475,-8.227829,0.003047,0.001593,-0.001077,0.289548,0.987082,2.849731,780.06,42.30,highres
7.008702,16161735611,-5.170238,0.972563,-8.225854,0.001049,0.001506,-0.001437,0.289548,0.987082,2.849731,780.06,42.30,highres
7.020943,16161748459,-5.164801,0.950853,-8.238989,0.001381,0.001503,-0.002131,0.289548,0.987082,2.849731,780.06,42.30,highres
7.028889,16161755864,-5.172544,0.964077,-8.241140,0.000726,0.000000,-0.002099,0.289548,0.987082,2.849731,780.06,42.30,highres
7.031514,16161763551,-5.171929,0.954235,-8.236506,-0.001176,-0.000788,-0.000671,0.289548,0.987082,2.849731,780.06,42.30,highres
7.048920,16161778839,-5.177831,0.960184,-8.218858,-0.004259,-0.002542,0.000682,0.289548,0.987082,2.849731,780.06,42.30,highres
7.059141,16161785041,-5.176898,0.963812,-8.231539,-0.003632,-0.002830,0.002095,0.290734,0.988568,2.842268,780.06,42.30,highres
7.066930,16161795876,-5.182882,0.959697,-8.219566,-0.005271,-0.003248,0.001484,0.290734,0.988568,2.842268,780.06,42.30,highres
7.080536,16161805639,-5.173305,0.974062,-8.241115,-0.005576,-0.001110,0.003927,0.290734,0.988568,2.842268,780.06,42.30,highres
7.088270,16161816130,-5.177842,0.979983,-8.216606,-0.001927,-0.001946,0.002930,0.290734,0.988568,2.842268,780.06,42.30,highres
7.101179,16161820118,-5.169715,0.978850,-8.218370,-0.000995,-0.001720,0.003011,0.290734,0.988568,2.842268,780.07,42.30,highres
7.107861,16161838253,-5.173306,0.966292,-8.229854,-0.002647,-0.001780,0.003316,0.290734,0.988568,2.842268,780.07,42.30,highres
7.115857,16161843168,-5.184100,0.960298,-8.226145,-0.004513,-0.001573,0.001199,0.290734,0.988568,2.842268,780.07,42.30,highres
7.131838,16161852891,-5.187380,0.973360,-8.227160,-0.002827,-0.000804,0.000567,0.290734,0.988568,2.842268,780.07,42.30,highres
7.141362,16161865363,-5.177426,0.974061,-8.228615,-0.000210,-0.000485,0.001019,0.289405,0.991911,2.845754,780.07,42.30,highres
7.148601,16161881081,-5.184546,0.979052,-8.224498,0.001702,0.001401,-0.000535,0.289405,0.991911,2.845754,780.07,42.30,highres
7.158603,16161886307,-5.181670,0.981244,-8.227371,0.002210,0.002861,-0.002185,0.289405,0.991911,2.845754,780.07,42.30,highres
7.168043,16161896530,-5.182156,0.975780,-8.226228,0.003135,0.004415,-0.003257,0.289405,0.991911,2.845754,780.06,42.30,highres
7.179932,16161905889,-5.164206,0.972893,-8.232316,0.004197,0.004694,-0.004014,0.289405,0.991911,2.845754,780.06,42.30,highres
7.189647,16161915637,-5.163996,0.964653,-8.231705,0.002670,0.003667,-0.004405,0.289405,0.991911,2.845754,780.06,42.30,highres
7.199658,16161922031,-5.168315,0.966475,-8.219863,0.003019,0.003515,-0.004188,0.282411,0.989801,2.855488,780.06,42.30,highres
7.211856,16161928199,-5.176397,0.970405,-8.244967,0.003538,0.002989,-0.004448,0.282411,0.989801,2.855488,780.06,42.30,highres
7.220180,16161948709,-5.180679,0.968460,-8.240527,-0.000049,0.001087,-0.002712,0.282411,0.989801,2.855488,780.06,42.30,highres
7.228300,16161955970,-5.176898,0.957628,-8.231034,-0.001195,0.000218,-0.002065,0.282411,0.989801,2.855488,780.06,42.30,highres
7.232182,16161968353,-5.186473,0.967895,-8.238835,-0.001767,0.000642,0.002077,0.282411,0.989801,2.855488,780.06,42.30,highres
7.248260,16161975665,-5.175921,0.962766,-8.229064,-0.001431,-0.000018,0.001745,0.282411,0.989801,2.855488,780.06,42.30,highres
7.260451,16161986574,-5.173349,0.961678,-8.229556,-0.001095,0.001234,0.002711,0.282411,0.989801,2.855488,780.06,42.30,highres
7.262256,16161996441,-5.185276,0.977653,-8.231538,-0.001911,0.003166,0.003622,0.282411,0.989801,2.855488,780.06,42.30,highres
7.262256,16162005078,-5.183501,0.964405,-8.223817,-0.000079,0.001639,0.003011,0.290028,0.988920,2.848519,780.06,42.30,highres
7.262256,16162016341,-5.173306,0.971618,-8.237720,0.001874,0.002009,0.001845,0.290028,0.988920,2.848519,780.06,42.30,highres
7.302735,16162021846,-5.182072,0.977653,-8.229029,0.001449,0.001697,0.002342,0.290028,0.988920,2.848519,780.06,42.30,highres
7.308238,16162036827,-5.170447,0.979715,-8.241646,0.000532,0.001945,0.001926,0.290028,0.988920,2.848519,780.06,42.30,highres
7.314225,16162042879,-5.166123,0.974061,-8.231538,-0.000274,0.001809,0.001899,0.290028,0.988920,2.848519,780.06,42.30,highres
7.327755,16162051255,-5.186046,0.973749,-8.219569,0.002670,0.002556,0.001789,0.290028,0.988920,2.848519,780.07,42.30,highres
7.339288,16162061849,-5.175438,0.976054,-8.224617,0.002172,0.003391,0.000262,0.285085,0.996652,2.851553,780.07,42.30,highres
7.347945,16162071503,-5.174481,0.968903,-8.228338,0.001924,0.002861,-0.000588,0.285085,0.996652,2.851553,780.07,42.30,highres
7.359274,16162085290,-5.179298,0.966879,-8.236334,0.000764,0.001390,-0.002339,0.285085,0.996652,2.851553,780.07,42.30,highres
7.367304,16162091799,-5.177513,0.963904,-8.237010,0.001372,0.001714,-0.001267,0.285085,0.996652,2.851553,780.07,42.30,highres
7.381574,16162102336,-5.175395,0.968801,-8.234069,0.001143,0.002250,-0.002181,0.285085,0.996652,2.851553,780.07,42.30,highres
7.387964,16162111701,-5.190302,0.981125,-8.241114,0.000838,0.001945,-0.002792,0.285085,0.996652,2.851553,780.07,42.30,highres
7.400291,16162121524,-5.174502,0.975259,-8.232735,0.000838,0.002556,-0.002368,0.285085,0.996652,2.851553,780.07,42.30,highres
7.406888,16162133809,-5.178541,0.965884,-8.215876,0.000532,0.001945,-0.002792,0.285085,0.996652,2.851553,780.08,42.30,highres
7.420800,16162144861,-5.184762,0.973121,-8.234816,0.000659,0.001536,-0.002360,0.293834,0.991546,2.847344,780.08,42.30,highres
7.429386,16162149563,-5.176128,0.966022,-8.233119,0.000001,0.001479,-0.002567,0.293834,0.991546,2.847344,780.08,42.30,highres
7.433044,16162162642,-5.177628,0.971302,-8.239451,-0.000872,0.001334,-0.001448,0.293834,0.991546,2.847344,780.08,42.30,highres
7.449280,16162172111,-5.181175,0.967507,-8.229025,-0.000384,0.002861,-0.000349,0.293834,0.991546,2.847344,780.08,42.30,highres
7.461362,16162184238,-5.178759,0.974996,-8.228478,-0.001421,0.000482,-0.001691,0.293834,0.991546,2.847344,780.08,42.30,highres
7.470497,16162188608,-5.186625,0.961265,-8.232666,-0.001538,0.002148,-0.000757,0.293834,0.991546,2.847344,780.08,42.30,highres
7.476123,16162202428,-5.179074,0.958341,-8.237307,-0.002217,0.000418,0.000836,0.292876,0.988848,2.851466,780.08,42.30,highres
7.491244,16162214948,-5.177282,0.968226,-8.227861,-0.002130,0.000112,0.001571,0.292876,0.988848,2.851466,780.07,42.30,highres
7.500260,16162222005,-5.179291,0.975259,-8.230340,-0.001958,0.000899,0.001965,0.292876,0.988848,2.851466,780.07,42.30,highres
7.507295,16162231840,-5.173413,0.977866,-8.229357,0.000086,0.001311,0.001766,0.292876,0.988848,2.851466,780.07,42.30,highres
7.515809,16162244613,-5.176229,0.976038,-8.231983,0.001754,0.001639,0.000567,0.292876,0.988848,2.851466,780.07,42.30,highres
7.529522,16162248648,-5.180238,0.970882,-8.250690,0.001278,0.002627,0.001079,0.292876,0.988848,2.851466,780.07,42.30,highres
7.538155,16162262871,-5.173411,0.976456,-8.225553,-0.000152,0.002671,0.001484,0.292876,0.988848,2.851466,780.07,42.30,highres
7.550545,16162281613,-5.173305,0.978850,-8.244704,-0.000047,0.002282,0.001452,0.292876,0.988848,2.851466,780.07,42.30,highres
7.558976,16162286343,-5.174502,0.970470,-8.242311,-0.000079,0.002250,0.001178,0.289781,0.991513,2.847466,780.07,42.30,highres
7.567701,16162298737,-5.177349,0.970447,-8.231538,-0.001186,0.000284,-0.000349,0.289781,0.991513,2.847466,780.07,42.30,highres
7.579632,16162308597,-5.185874,0.969856,-8.245905,-0.002064,-0.000653,-0.000502,0.289781,0.991513,2.847466,780.07,42.30,highres
7.587153,16162318677,-5.178425,0.984379,-8.238515,-0.001807,-0.001587,-0.000520,0.289781,0.991513,2.847466,780.07,42.30,highres
7.600374,16162326528,-5.174180,0.984512,-8.229694,-0.001300,-0.000305,0.001231,0.289781,0.991513,2.847466,780.07,42.30,highres
7.607642,16162336840,-5.166124,0.982571,-8.221897,-0.000995,0.000012,-0.002082,0.289781,0.991513,2.847466,780.07,42.30,highres
7.620478,16162346412,-5.169869,0.976090,-8.238409,-0.000643,0.000229,-0.003098,0.289928,0.991928,2.846791,780.07,42.30,highres
7.627725,16162351441,-5.185649,0.976207,-8.231949,0.000227,0.001190,-0.003254,0.289928,0.991928,2.846791,780.07,42.30,highres
7.631796,16162368746,-5.180255,0.973900,-8.239684,0.000766,0.000777,-0.005541,0.289928,0.991928,2.846791,780.07,42.30,highres
7.648694,16162379180,-5.185846,0.965705,-8.220206,0.000378,0.000877,-0.006452,0.289928,0.991928,2.846791,780.07,42.30,highres
7.660580,16162385559,-5.193153,0.963675,-8.233392,0.000099,0.000546,-0.006536,0.289928,0.991928,2.846791,780.07,42.30,highres
7.669530,16162398966,-5.184172,0.954590,-8.238925,0.001019,0.001616,-0.004105,0.289928,0.991928,2.846791,780.07,42.30,highres
7.676302,16162409572,-5.196642,0.967330,-8.230638,0.000036,0.000418,-0.003824,0.289928,0.991928,2.846791,780.07,42.30,highres
7.687612,16162418996,-5.192991,0.964928,-8.231848,0.001031,0.001195,0.000037,0.289928,0.991928,2.846791,780.07,42.30,highres
7.700474,16162427067,-5.181685,0.966879,-8.230341,0.000532,0.001945,-0.000043,0.288330,0.990282,2.843292,780.07,42.30,highres
7.708104,16162437785,-5.176898,0.956106,-8.221962,0.000227,0.001334,0.001484,0.288330,0.990282,2.843292,780.07,42.30,highres
7.713293,16162446155,-5.172109,0.959697,-8.232735,0.000532,0.001639,0.003316,0.288330,0.990282,2.843292,780.07,42.30,highres
7.726788,16162458530,-5.173940,0.957585,-8.230903,-0.000079,0.002494,0.003622,0.288330,0.990282,2.843292,780.07,42.30,highres
7.740439,16162466242,-5.175949,0.972647,-8.237289,-0.000079,0.001945,0.003927,0.288330,0.990282,2.843292,780.07,42.30,highres
7.748888,16162473443,-5.179291,0.975259,-8.241115,-0.000188,0.002164,0.003426,0.288330,0.990282,2.843292,780.07,42.30,highres
7.759549,16162489211,-5.179498,0.972464,-8.237185,-0.000596,0.000005,0.001471,0.290309,0.994366,2.844955,780.07,42.30,highres
7.768190,16162499159,-5.177586,0.972403,-8.214268,0.000051,0.000793,0.000472,0.290309,0.994366,2.844955,780.07,42.30,highres
7.782388,16162509774,-5.175264,0.981664,-8.232430,0.000399,-0.000315,-0.000875,0.290309,0.994366,2.844955,780.07,42.30,highres
7.790980,16162518910,-5.164024,0.980861,-8.223753,0.000826,0.002147,-0.001874,0.290309,0.994366,2.844955,780.07,42.30,highres
7.800654,16162531779,-5.170687,0.967928,-8.201097,0.003903,0.003756,-0.002310,0.290309,0.994366,2.844955,780.07,42.30,highres
7.807558,16162536667,-5.180985,0.961901,-8.151696,0.010299,0.004287,-0.002326,0.290309,0.994366,2.844955,780.06,42.30,highres
7.820613,16162544704,-5.188555,0.974652,-8.219314,0.012919,0.004376,-0.002715,0.290309,0.994366,2.844955,780.06,42.30,highres
7.827556,16162559002,-5.183580,0.964399,-8.245972,0.001789,0.004874,-0.004058,0.290309,0.994366,2.844955,780.06,42.30,highres
7.831422,16162565645,-5.182696,0.964461,-8.215672,0.000826,0.003766,-0.003416,0.291956,0.985655,2.847056,780.06,42.30,highres
7.847781,16162579872,-5.186219,0.961429,-8.244903,0.004491,0.003550,-0.002788,0.291956,0.985655,2.847056,780.06,42.30,highres
7.860431,16162587619,-5.183918,0.960882,-8.250386,0.002662,0.004891,-0.001487,0.291956,0.985655,2.847056,780.06,42.30,highres
7.870403,16162596648,-5.181006,0.954103,-8.235943,0.001005,0.003692,0.000070,0.291956,0.985655,2.847056,780.06,42.30,highres
7.876331,16162606521,-5.176712,0.956082,-8.237219,-0.000090,0.002238,0.001776,0.291956,0.985655,2.847056,780.06,42.30,highres
7.888109,16162616508,-5.180321,0.959048,-8.223479,0.000370,0.000096,0.002232,0.291956,0.985655,2.847056,780.06,42.30,highres
7.901087,16162626534,-5.180930,0.967111,-8.236592,-0.001730,-0.000172,0.003609,0.296921,0.992285,2.850346,780.06,42.30,highres
7.908472,16162636723,-5.167135,0.971644,-8.247992,-0.002839,0.001933,0.002692,0.296921,0.992285,2.850346,780.06,42.30,highres
7.915051,16162646694,-5.159751,0.971845,-8.225652,-0.003411,-0.000205,0.001051,0.296921,0.992285,2.850346,780.06,42.30,highres
7.927872,16162652318,-5.162983,0.973325,-8.229082,-0.001312,0.000406,0.000860,0.296921,0.992285,2.850346,780.06,42.30,highres
7.940642,16162662445,-5.172910,0.987344,-8.226871,-0.001145,0.000463,-0.001030,0.296921,0.992285,2.850346,780.06,42.30,highres
7.947410,16162672755,-5.168962,0.979009,-8.223301,-0.001071,0.001081,-0.002377,0.296921,0.992285,2.850346,780.06,42.30,highres
7.957711,16162679322,-5.165938,0.971623,-8.230985,-0.000846,0.001903,-0.003256,0.296921,0.992285,2.850346,780.06,42.30,highres
7.968730,16162691996,-5.175515,0.980023,-8.238416,0.001444,0.002395,-0.007223,0.296921,0.992285,2.850346,780.07,42.30,highres
7.980082,16162699810,-5.177342,0.960110,-8.234759,0.002137,0.001846,-0.008216,0.289515,0.993259,2.850370,780.07,42.30,highres
7.987607,16162709396,-5.181090,0.959116,-8.226035,0.004797,0.003285,-0.009700,0.289515,0.993259,2.850370,780.07,42.30,highres
8.000295,16162720320,-5.164873,0.965526,-8.261228,0.002729,0.002849,-0.010261,0.289515,0.993259,2.850370,780.07,42.30,highres
8.006874,16162731938,-5.196277,0.952863,-8.220420,-0.007022,0.007364,-0.010162,0.289515,0.993259,2.850370,780.07,42.30,highres
8.022075,16162742904,-5.204243,0.951294,-8.246795,-0.000462,0.005359,-0.006504,0.289515,0.993259,2.850370,780.07,42.30,highres
8.031995,16162754922,-5.197062,0.945309,-8.252781,0.005240,0.001017,-0.001642,0.289515,0.993259,2.850370,780.07,42.30,highres
8.033079,16162764745,-5.179106,0.942377,-8.237924,0.002353,-0.000205,0.001776,0.290644,0.996007,2.842832,780.07,42.30,highres
8.048559,16162769042,-5.176712,0.948241,-8.230575,-0.000932,0.000100,0.004787,0.290644,0.996007,2.842832,780.07,42.30,highres
8.059358,16162779250,-5.177908,0.975235,-8.226444,-0.003285,0.000563,0.006366,0.290644,0.996007,2.842832,780.07,42.30,highres
8.067485,16162794474,-5.178546,0.966936,-8.244401,-0.001617,0.000406,0.009717,0.290644,0.996007,2.842832,780.07,42.30,highres
8.080827,16162805177,-5.175439,0.957204,-8.234517,-0.003756,0.000711,0.009412,0.290644,0.996007,2.842832,780.07,42.30,highres
8.087842,16162816541,-5.173226,0.970992,-8.229717,-0.002440,-0.002586,0.010054,0.290644,0.996007,2.842832,780.07,42.30,highres
8.101825,16162822991,-5.164091,0.977629,-8.247172,-0.001982,-0.002172,0.009621,0.290644,0.996007,2.842832,780.07,42.30,highres
8.107724,16162830100,-5.167725,0.977038,-8.241976,-0.002132,-0.003992,0.008941,0.290644,0.996007,2.842832,780.07,42.30,highres
8.113998,16162842405,-5.174950,0.972020,-8.235578,-0.003381,-0.004880,0.008166,0.291351,0.985443,2.845162,780.07,42.30,highres
8.129006,16162852155,-5.168696,0.974090,-8.227296,-0.004061,-0.002649,0.006052,0.291351,0.985443,2.845162,780.07,42.30,highres
8.140716,16162862463,-5.161735,0.981804,-8.223483,-0.002534,-0.002648,0.002692,0.291351,0.985443,2.845162,780.07,42.30,highres
8.146958,16162872053,-5.170727,0.973529,-8.229018,-0.001617,-0.001394,-0.000056,0.291351,0.985443,2.845162,780.07,42.30,highres
8.157844,16162876718,-5.166495,0.978268,-8.229954,-0.002769,-0.000910,-0.000409,0.291351,0.985443,2.845162,780.07,42.30,highres
8.171312,16162890560,-5.176401,0.968981,-8.233627,-0.003504,-0.000456,-0.002914,0.291351,0.985443,2.845162,780.07,42.30,highres
8.179296,16162898067,-5.175565,0.974611,-8.235449,-0.001628,0.000248,-0.004095,0.287153,0.988307,2.847147,780.07,42.30,highres
8.187326,16162916904,-5.172204,0.977171,-8.226902,-0.001051,-0.001238,-0.005321,0.287153,0.988307,2.847147,780.07,42.30,highres
8.199401,16162927205,-5.172736,0.970831,-8.231277,-0.001007,-0.002038,-0.005435,0.287153,0.988307,2.847147,780.07,42.30,highres
8.210562,16162936942,-5.190504,0.968964,-8.240704,0.000521,-0.000460,-0.005987,0.287153,0.988307,2.847147,780.06,42.30,highres
8.220308,16162949425,-5.166201,0.948636,-8.114709,0.010850,0.001701,-0.002689,0.287153,0.988307,2.847147,780.06,42.30,highres
8.227414,16162959825,-5.204244,0.981220,-8.273130,0.012272,0.003998,-0.002987,0.287153,0.988307,2.847147,780.06,42.30,highres
8.232855,16162964669,-5.224442,0.975486,-8.341623,0.002962,0.007092,-0.003824,0.287153,0.988307,2.847147,780.06,42.30,highres
8.248606,16162979823,-5.169159,0.965810,-8.187837,0.003321,0.000819,-0.001450,0.287153,0.988307,2.847147,780.06,42.30,highres
8.260052,16162984494,-5.190487,0.957267,-8.177968,0.006172,0.000560,-0.000513,0.287625,0.998217,2.843918,780.06,42.30,highres
8.266992,16162995067,-5.185091,0.959673,-8.268343,0.005541,0.004391,0.003005,0.287625,0.998217,2.843918,780.06,42.30,highres
8.266992,16163004342,-5.128356,0.969779,-8.252558,-0.002065,0.006522,0.004660,0.287625,0.998217,2.843918,780.06,42.30,highres
8.266992,16163014224,-5.228184,0.969250,-8.251583,-0.006810,0.002849,0.006968,0.287625,0.998217,2.843918,780.06,42.30,highres
8.266992,16163025525,-5.171532,0.973285,-8.219813,-0.003569,0.004071,0.006171,0.287625,0.998217,2.843918,780.06,42.30,highres
8.308715,16163029769,-5.154782,0.965373,-8.228359,0.000291,0.003333,0.006485,0.287625,0.998217,2.843918,780.06,42.30,highres
8.314186,16163042216,-5.171526,0.970446,-8.245598,-0.001729,-0.000538,0.007385,0.286257,0.995463,2.845186,780.06,42.30,highres
8.331028,16163057107,-5.161150,0.966855,-8.212080,-0.006033,0.002014,0.006941,0.286257,0.995463,2.845186,780.06,42.30,highres
8.339695,16163062373,-5.158971,0.968543,-8.218555,-0.003145,0.001628,0.007579,0.286257,0.995463,2.845186,780.06,42.30,highres
8.348401,16163080869,-5.174264,0.979971,-8.245026,-0.002082,-0.001679,0.004658,0.286257,0.995463,2.845186,780.06,42.30,highres
8.358137,16163087062,-5.158079,0.993459,-8.244839,-0.003547,-0.001114,0.003616,0.286257,0.995463,2.845186,780.06,42.30,highres
8.367027,16163099448,-5.184001,0.953842,-8.249163,-0.009993,0.002693,0.003296,0.286257,0.995463,2.845186,780.07,42.30,highres
8.380822,16163104963,-5.170938,0.996924,-8.244756,-0.012236,0.003712,0.003052,0.286257,0.995463,2.845186,780.07,42.30,highres
8.388445,16163115757,-5.162347,0.984811,-8.197716,-0.002534,0.001322,0.000249,0.286257,0.995463,2.845186,780.07,42.30,highres
8.399757,16163122214,-5.169158,0.986094,-8.196690,0.004851,-0.000081,-0.001823,0.293160,0.990135,2.845218,780.07,42.30,highres
8.408441,16163134637,-5.166578,0.979531,-8.262506,0.001346,0.000137,-0.003416,0.293160,0.990135,2.845218,780.07,42.30,highres
8.420578,16163144930,-5.184801,0.970896,-8.228397,-0.004405,0.003040,-0.004523,0.293160,0.990135,2.845218,780.07,42.30,highres
8.427655,16163157550,-5.176467,0.980744,-8.213638,0.002959,0.000619,-0.004454,0.293160,0.990135,2.845218,780.07,42.30,highres
8.431267,16163167156,-5.172774,0.964500,-8.217870,0.005229,0.000152,-0.004333,0.293160,0.990135,2.845218,780.07,42.30,highres
8.448931,16163177415,-5.179223,0.963078,-8.235717,0.001850,0.000466,-0.003661,0.293160,0.990135,2.845218,780.08,42.30,highres
8.459639,16163186783,-5.180845,0.966425,-8.236359,0.000382,0.002654,-0.002944,0.293254,0.991877,2.844603,780.08,42.30,highres
8.467644,16163197137,-5.183959,0.968251,-8.229404,0.002336,0.000906,-0.003560,0.293254,0.991877,2.844603,780.08,42.30,highres
8.480055,16163207224,-5.181500,0.971034,-8.235705,0.003575,0.002089,-0.001814,0.293254,0.991877,2.844603,780.08,42.30,highres
8.488245,16163215903,-5.183536,0.961945,-8.238774,0.003544,0.001048,-0.001370,0.293254,0.991877,2.844603,780.08,42.30,highres
8.500909,16163227901,-5.168379,0.948900,-8.216404,0.003543,0.001354,0.001713,0.293254,0.991877,2.844603,780.08,42.30,highres
8.508208,16163235628,-5.173772,0.962719,-8.197276,0.005028,0.000554,0.002387,0.293254,0.991877,2.844603,780.08,42.30,highres
8.520125,16163245097,-5.180303,0.962154,-8.271324,-0.001134,-0.000971,0.002393,0.293254,0.991877,2.844603,780.08,42.30,highres
8.526774,16163259702,-5.157583,0.958476,-8.220970,-0.012308,-0.002303,0.005922,0.293254,0.991877,2.844603,780.07,43.00,highres
8.540126,16163265372,-5.167135,0.954151,-8.212506,-0.013273,-0.002718,0.006239,0.288015,0.991453,2.843990,780.07,43.00,highres
8.549231,16163280331,-5.181304,0.993101,-8.225445,-0.010849,-0.001285,0.006216,0.288015,0.991453,2.843990,780.07,43.00,highres
8.558218,16163285256,-5.170917,0.984976,-8.240075,-0.008187,-0.002487,0.005902,0.288015,0.991453,2.843990,780.07,43.00,highres
8.568376,16163297664,-5.174575,0.962973,-8.234241,-0.006810,-0.004787,0.003303,0.288015,0.991453,2.843990,780.07,43.00,highres
8.580352,16163307275,-5.189130,0.984017,-8.243405,-0.007586,-0.003782,0.003940,0.288015,0.991453,2.843990,780.07,43.00,highres
8.587834,16163320362,-5.181921,0.978404,-8.243272,-0.007709,-0.004176,0.005243,0.288015,0.991453,2.843990,780.07,43.00,highres
8.600525,16163325872,-5.186663,0.980278,-8.245032,-0.010264,-0.002504,0.003481,0.288150,0.992361,2.846592,780.07,43.00,highres
8.608028,16163340563,-5.197188,0.991459,-8.225195,-0.006185,0.000825,0.004419,0.288150,0.992361,2.846592,780.07,43.00,highres
8.620571,16163348098,-5.193817,0.996089,-8.265443,-0.002454,0.001066,0.003529,0.288150,0.992361,2.846592,780.07,43.00,highres
8.627522,16163357067,-5.166430,0.984249,-8.224755,-0.000090,-0.004787,0.001776,0.288150,0.992361,2.846592,780.07,43.00,highres
8.639710,16163367624,-5.161150,0.981220,-8.231234,-0.002534,-0.004481,0.002692,0.288150,0.992361,2.846592,780.07,43.00,highres
8.648564,16163375272,-5.175568,0.981695,-8.235934,-0.004827,-0.004631,0.002617,0.288150,0.992361,2.846592,780.07,43.00,highres
8.659160,16163386966,-5.191076,0.977712,-8.242979,-0.006954,-0.003115,0.003159,0.288150,0.992361,2.846592,780.07,43.00,highres
8.669333,16163397633,-5.191391,0.983614,-8.237727,-0.005143,-0.004455,0.002718,0.288150,0.992361,2.846592,780.07,43.00,highres
8.680421,16163406991,-5.184976,0.979379,-8.218482,-0.004618,-0.005469,0.002818,0.288874,0.989061,2.847932,780.07,43.00,highres
8.687772,16163414546,-5.164745,0.970838,-8.160253,-0.000604,-0.003871,0.003403,0.288874,0.989061,2.847932,780.07,43.00,highres
8.698976,16163429766,-5.185040,1.004000,-8.285687,-0.010634,0.005452,0.007426,0.288874,0.989061,2.847932,780.07,43.00,highres
8.707819,16163435624,-5.162188,0.990513,-8.250220,-0.014547,0.007909,0.006052,0.288874,0.989061,2.847932,780.07,43.00,highres
8.714535,16163449819,-5.190222,1.007386,-8.241498,-0.008128,0.002655,0.008065,0.288874,0.989061,2.847932,780.07,43.00,highres
8.727785,16163455310,-5.185621,0.998375,-8.233351,-0.002942,-0.000035,0.008020,0.288874,0.989061,2.847932,780.07,43.00,highres
8.739275,16163467452,-5.180815,0.973793,-8.240125,-0.000704,-0.005703,0.007731,0.293720,0.981489,2.847847,780.07,43.00,highres
8.748516,16163475607,-5.171617,0.981803,-8.219877,-0.002042,-0.004548,0.008947,0.293720,0.981489,2.847847,780.07,43.00,highres
8.760801,16163490822,-5.183752,1.005132,-8.242945,-0.009573,0.001155,0.011701,0.293720,0.981489,2.847847,780.07,43.00,highres
8.768240,16163495283,-5.180448,0.997381,-8.227109,-0.011678,0.000852,0.010329,0.293720,0.981489,2.847847,780.07,43.00,highres
8.781696,16163510401,-5.190937,1.011117,-8.198664,-0.001976,0.002154,0.007215,0.293720,0.981489,2.847847,780.07,43.00,highres
8.791722,16163520946,-5.183858,1.005885,-8.229921,0.004180,0.001132,0.007109,0.293720,0.981489,2.847847,780.07,43.00,highres
8.798369,16163525124,-5.185875,1.005131,-8.241295,0.002910,0.001768,0.006451,0.293720,0.981489,2.847847,780.07,43.00,highres
8.808838,16163532912,-5.180218,0.992125,-8.242537,0.001750,0.002440,0.004420,0.293720,0.981489,2.847847,780.07,43.00,highres
8.819909,16163545086,-5.181519,0.988554,-8.204649,-0.001109,0.001088,0.004831,0.296130,0.998064,2.847184,780.07,43.00,highres
8.826745,16163554804,-5.172981,0.991964,-8.226193,-0.000097,-0.001451,0.004220,0.296130,0.998064,2.847184,780.07,43.00,highres
8.838722,16163570322,-5.168747,0.989600,-8.255508,-0.003791,-0.003440,0.005151,0.296130,0.998064,2.847184,780.07,43.00,highres
8.848224,16163575197,-5.171785,0.989570,-8.235771,-0.006511,-0.003589,0.005442,0.296130,0.998064,2.847184,780.07,43.00,highres
8.860835,16163589987,-5.174763,0.988373,-8.202840,-0.008663,-0.004200,0.003297,0.296130,0.998064,2.847184,780.07,43.00,highres
8.868299,16163595467,-5.181873,0.993329,-8.211655,-0.008038,-0.003895,0.004962,0.296130,0.998064,2.847184,780.07,43.00,highres
8.881858,16163609831,-5.178988,1.011728,-8.239383,-0.007274,-0.004049,0.005745,0.281727,0.991944,2.850907,780.07,43.00,highres
8.888140,16163615700,-5.180241,1.000224,-8.234533,-0.007125,-0.005271,0.004367,0.281727,0.991944,2.850907,780.07,43.00,highres
8.901402,16163624241,-5.185885,1.007505,-8.221874,-0.006205,-0.003589,0.004220,0.281727,0.991944,2.850907,780.07,43.00,highres
8.906544,16163635060,-5.202953,1.002737,-8.256609,-0.005289,-0.008171,0.004740,0.281727,0.991944,2.850907,780.07,43.00,highres
8.920386,16163641042,-5.187631,1.003137,-8.237309,-0.005108,-0.006893,0.005442,0.281727,0.991944,2.850907,780.07,43.00,highres
8.927502,16163653030,-5.187660,1.013197,-8.238795,-0.004678,-0.007122,0.006265,0.281727,0.991944,2.850907,780.07,43.00,highres
8.931099,16163658565,-5.184318,1.006399,-8.240351,-0.003058,-0.007600,0.006451,0.281727,0.991944,2.850907,780.07,43.00,highres
8.946934,16163671031,-5.184177,0.999029,-8.225445,-0.003151,-0.007712,0.007431,0.281727,0.991944,2.850907,780.07,43.00,highres
8.958985,16163680790,-5.186149,0.995555,-8.223802,-0.003548,-0.006615,0.008231,0.279284,0.995797,2.856472,780.07,43.00,highres
8.968138,16163691191,-5.196423,0.995505,-8.187691,-0.004067,-0.007125,0.008103,0.279284,0.995797,2.856472,780.07,43.00,highres
8.980894,16163703768,-5.197188,1.000078,-8.173723,-0.000197,-0.003263,0.008823,0.279284,0.995797,2.856472,780.07,43.00,highres
8.988522,16163716252,-5.195331,1.015040,-8.293461,0.004782,-0.001039,0.007679,0.279284,0.995797,2.856472,780.07,43.00,highres
8.999939,16163721919,-5.170268,1.000265,-8.271286,-0.001209,0.000772,0.006969,0.279284,0.995797,2.856472,780.07,43.00,highres
9.008206,16163730325,-5.191873,1.012193,-8.212263,-0.012925,-0.000535,0.009413,0.279284,0.995797,2.856472,780.07,43.00,highres
9.019262,16163735712,-5.182080,1.007286,-8.205128,-0.010687,-0.000495,0.009841,0.278853,0.990379,2.856940,780.07,43.00,highres
9.027753,16163741127,-5.204830,1.009678,-8.216837,-0.005289,-0.001146,0.009718,0.278853,0.990379,2.856940,780.07,43.00,highres
9.035935,16163753940,-5.198214,1.004074,-8.225280,0.003018,-0.005787,0.009555,0.278853,0.990379,2.856940,780.07,43.00,highres
9.047672,16163757895,-5.202428,1.015905,-8.245895,0.003263,-0.005422,0.010635,0.278853,0.990379,2.856940,780.07,43.00,highres
9.057191,16163772930,-5.149714,1.002307,-8.192492,0.000514,-0.004331,0.008950,0.278853,0.990379,2.856940,780.07,43.00,highres
9.068551,16163783948,-5.210090,1.015905,-8.214224,-0.002394,-0.002805,0.010621,0.278853,0.990379,2.856940,780.07,43.00,highres
9.081238,16163793625,-5.204444,1.025053,-8.217163,-0.004948,-0.000726,0.010329,0.278853,0.990379,2.856940,780.07,43.00,highres
9.090716,16163797823,-5.184141,1.004310,-8.187881,-0.005594,-0.000535,0.010635,0.278853,0.990379,2.856940,780.07,43.00,highres
9.099482,16163827669,-5.194709,1.005222,-8.212451,-0.002057,-0.003284,0.007807,0.285241,0.995994,2.851633,780.07,43.00,highres
9.108154,16163835983,-5.202002,1.018299,-8.214838,-0.002925,-0.001630,0.010038,0.285241,0.995994,2.851633,780.07,43.00,highres
9.120571,16163845500,-5.196922,1.019227,-8.249134,-0.006307,0.000524,0.011429,0.285241,0.995994,2.851633,780.07,43.00,highres
9.127041,16163855471,-5.153809,1.027862,-8.197433,-0.002691,-0.000536,0.010787,0.285241,0.995994,2.851633,780.07,43.00,highres
9.139844,16163865615,-5.159386,1.008267,-8.174323,0.005024,-0.004550,0.009413,0.285241,0.995994,2.851633,780.07,43.00,highres
9.147094,16163876225,-5.184953,1.019496,-8.236969,0.002652,0.000076,0.010329,0.285241,0.995994,2.851633,780.07,43.00,highres
9.159075,16163885960,-5.212484,1.003935,-8.234574,-0.008343,0.002519,0.011245,0.286084,0.987433,2.848367,780.07,43.00,highres
9.166660,16163898401,-5.202069,1.031680,-8.217298,-0.006123,0.001229,0.012918,0.286084,0.987433,2.848367,780.06,43.00,highres
9.179209,16163903830,-5.182014,1.038125,-8.213658,-0.001168,-0.003718,0.011556,0.286084,0.987433,2.848367,780.06,43.00,highres
9.193250,16163916704,-5.182558,1.023087,-8.223801,0.000514,-0.006949,0.010024,0.286084,0.987433,2.848367,780.06,43.00,highres
9.201781,16163926080,-5.182556,1.020215,-8.214624,-0.002845,-0.003895,0.010024,0.286084,0.987433,2.848367,780.06,43.00,highres
9.208071,16163930737,-5.201710,1.025481,-8.230982,-0.005595,-0.003040,0.010451,0.286084,0.987433,2.848367,780.06,43.00,highres
9.219438,16163941069,-5.207743,1.021844,-8.228264,-0.008954,-0.003437,0.010332,0.286084,0.987433,2.848367,780.06,43.00,highres
9.227673,16163951338,-5.198119,1.036255,-8.211830,-0.006351,-0.003769,0.007832,0.286084,0.987433,2.848367,780.06,43.00,highres
9.231364,16163965569,-5.180734,1.032375,-8.209264,0.000820,-0.008171,0.008497,0.294117,0.993160,2.847156,780.06,43.00,highres
9.247369,16163970570,-5.183139,1.043541,-8.208344,0.001591,-0.007269,0.008802,0.294117,0.993160,2.847156,780.06,43.00,highres
9.261630,16163988697,-5.179446,1.016743,-8.200338,-0.002173,-0.005055,0.005015,0.294117,0.993160,2.847156,780.06,43.00,highres
9.263386,16163998025,-5.196893,1.038180,-8.214984,-0.002081,-0.005112,0.005134,0.294117,0.993160,2.847156,780.06,43.00,highres
9.263386,16164008609,-5.203587,1.024649,-8.212612,-0.003668,-0.004306,0.005654,0.294117,0.993160,2.847156,780.06,43.00,highres
9.263386,16164016305,-5.199432,1.020113,-8.211136,-0.003023,-0.003767,0.003560,0.294117,0.993160,2.847156,780.06,43.00,highres
9.263386,16164027940,-5.186759,1.035653,-8.211839,-0.002408,-0.005381,0.003131,0.286430,0.992989,2.852769,780.06,43.00,highres
9.308010,16164035357,-5.187900,1.021015,-8.204143,-0.001318,-0.004811,0.002011,0.286430,0.992989,2.852769,780.06,43.00,highres
9.313163,16164048005,-5.192690,1.029036,-8.212436,-0.002083,-0.003432,0.001931,0.286430,0.992989,2.852769,780.06,43.00,highres
9.329133,16164053257,-5.188210,1.015057,-8.216287,-0.002626,-0.003589,0.001558,0.286430,0.992989,2.852769,780.06,43.00,highres
9.340607,16164067971,-5.184848,1.032196,-8.199080,0.001202,-0.003156,0.001688,0.286430,0.992989,2.852769,780.07,43.00,highres
9.348289,16164081071,-5.202789,1.027875,-8.257437,0.001981,-0.000200,0.000968,0.286430,0.992989,2.852769,780.07,43.00,highres
9.357883,16164085687,-5.199656,1.030787,-8.237339,0.000386,0.000121,0.000423,0.286430,0.992989,2.852769,780.07,43.00,highres
9.367271,16164097124,-5.190936,1.030269,-8.213026,-0.001013,-0.001451,0.001166,0.286430,0.992989,2.852769,780.07,43.00,highres
9.379194,16164106235,-5.198120,1.031467,-8.199862,0.002347,-0.001146,0.001472,0.291981,0.992830,2.847922,780.07,43.00,highres
9.387585,16164115298,-5.183383,1.024656,-8.200384,-0.000097,-0.002062,0.002082,0.291981,0.992830,2.847922,780.07,43.00,highres
9.400418,16164126257,-5.187529,1.026171,-8.197791,-0.001318,-0.001887,0.003086,0.291981,0.992830,2.847922,780.07,43.00,highres
9.406844,16164138398,-5.190937,1.025481,-8.195071,-0.002204,-0.000087,0.002469,0.291981,0.992830,2.847922,780.07,43.00,highres
9.419538,16164147335,-5.189164,1.022200,-8.166618,-0.000342,-0.001341,0.003474,0.291981,0.992830,2.847922,780.08,43.00,highres
