t_wall_s,t_boot_us,ax,ay,az,gx,gy,gz,mx,my,mz,abs_pressure,temperature,source
74.345906,9855974794,0.640910,0.012465,-9.751485,0.000664,0.000433,-0.000372,0.320588,1.216484,2.634852,778.92,15.00,highres
74.356604,9855985973,0.626353,0.016056,-9.741562,0.001239,0.001578,-0.000650,0.320588,1.216484,2.634852,778.92,15.00,highres
74.356604,9855995319,0.640910,0.008874,-9.749091,0.000841,0.001114,-0.000570,0.320588,1.216484,2.634852,778.92,15.00,highres
74.356604,9856006457,0.634925,0.007369,-9.747120,0.000761,0.000289,0.000399,0.320588,1.216484,2.634852,778.92,15.00,highres
74.356604,9856010513,0.636637,0.007330,-9.741046,-0.000411,0.000617,-0.000097,0.320588,1.216484,2.634852,778.92,15.00,highres
74.401834,9856024877,0.643304,0.012465,-9.749091,-0.000381,0.000623,-0.000723,0.320588,1.216484,2.634852,778.92,15.00,highres
74.404374,9856036309,0.638109,0.015859,-9.746686,-0.000002,-0.000088,-0.000678,0.320588,1.216484,2.634852,778.92,15.00,highres
74.421617,9856043475,0.636053,0.020085,-9.747135,-0.000432,0.000550,-0.002003,0.320588,1.216484,2.634852,778.92,15.00,highres
74.429433,9856058069,0.642087,0.016854,-9.753483,0.000059,0.000787,-0.001123,0.320588,1.216484,2.634852,778.92,15.00,highres
74.443534,9856072548,0.631703,-0.000718,-9.758462,-0.000796,-0.000560,-0.000564,0.320588,1.216484,2.634852,778.92,15.00,highres
74.446790,9856079441,0.634375,0.010526,-9.748965,-0.000028,0.001608,-0.001205,0.320588,1.216484,2.634852,778.92,15.00,highres
74.457530,9856090269,0.639816,0.006575,-9.743159,0.000171,0.001934,-0.000021,0.320588,1.216484,2.634852,778.92,15.00,highres
74.465172,9856095103,0.637664,0.002729,-9.746655,0.000415,0.000388,0.000145,0.324481,1.208213,2.633049,778.92,15.00,highres
74.480880,9856105111,0.639004,0.015746,-9.745315,0.001224,0.002266,-0.001308,0.324481,1.208213,2.633049,778.92,15.00,highres
74.488401,9856115918,0.636085,0.004071,-9.751680,0.000226,0.001684,-0.000697,0.312494,1.208741,2.643173,778.92,15.00,highres
74.495807,9856130739,0.631393,0.014262,-9.748088,-0.000534,0.001214,0.000360,0.312494,1.208741,2.643173,778.92,15.00,highres
74.511982,9856135293,0.645661,0.006622,-9.740611,-0.000080,0.000652,0.000484,0.312494,1.208741,2.643173,778.92,15.00,highres
74.521920,9856149331,0.631749,0.013940,-9.736277,0.000721,0.000346,-0.001192,0.312494,1.208741,2.643173,778.92,15.00,highres
74.530436,9856163391,0.628274,0.019947,-9.740458,0.000901,0.001233,0.000155,0.312494,1.208741,2.643173,778.92,15.00,highres
74.535420,9856168449,0.642257,0.001365,-9.725345,0.000868,0.000325,-0.000392,0.312494,1.208741,2.643173,778.92,15.00,highres
74.547485,9856179772,0.629812,0.002923,-9.747180,-0.000691,0.000767,0.001136,0.312494,1.208741,2.643173,778.92,15.00,highres
74.557215,9856185591,0.641096,0.013412,-9.745942,0.000245,0.001339,0.001116,0.312494,1.208741,2.643173,778.92,15.00,highres
74.573070,9856195331,0.641578,0.008221,-9.753088,-0.000267,0.001328,0.000219,0.312494,1.208741,2.643173,778.92,15.00,highres
74.580047,9856206229,0.631649,0.013225,-9.752419,0.000520,0.000062,-0.000392,0.312494,1.208741,2.643173,778.92,15.00,highres
74.588783,9856218140,0.638585,0.010056,-9.740750,-0.000544,0.000608,0.000211,0.312494,1.208741,2.643173,778.92,15.00,highres
74.596198,9856222544,0.634719,0.009179,-9.749521,-0.000019,0.001439,0.000952,0.312494,1.208741,2.643173,778.92,15.00,highres
74.613840,9856237674,0.641712,0.009576,-9.754073,0.000349,0.000704,0.000037,0.329062,1.207711,2.630089,778.92,15.00,highres
74.622622,9856242896,0.631297,0.006465,-9.750482,0.001154,0.000156,-0.001161,0.331943,1.214076,2.623174,778.92,15.00,highres
74.632196,9856255907,0.631328,0.017860,-9.746301,0.000379,0.002561,-0.000468,0.331943,1.214076,2.623174,778.92,15.00,highres
74.635808,9856260623,0.637481,0.007061,-9.746898,0.000336,0.001407,-0.000974,0.331943,1.214076,2.623174,778.92,15.00,highres
74.646819,9856273198,0.637282,0.010056,-9.742103,-0.000385,0.000920,-0.001155,0.331943,1.214076,2.623174,778.92,15.00,highres
74.656799,9856284132,0.629398,0.003781,-9.753166,0.000531,0.000539,-0.001919,0.331943,1.214076,2.623174,778.92,15.00,highres
74.663800,9856288491,0.644000,0.005268,-9.754682,0.000531,0.000992,-0.001034,0.331943,1.214076,2.623174,778.92,15.00,highres
74.680297,9856308587,0.638479,0.011253,-9.739709,0.000837,0.002294,-0.000392,0.331943,1.214076,2.623174,778.92,15.00,highres
74.692960,9856317667,0.631669,0.004071,-9.740352,0.000363,0.000577,-0.000392,0.331943,1.214076,2.623174,778.92,15.00,highres
74.696428,9856323242,0.636378,0.005688,-9.741745,-0.000080,0.002294,-0.000086,0.331943,1.214076,2.623174,778.92,15.00,highres
74.712492,9856332477,0.625187,0.006011,-9.741649,0.000071,0.001378,-0.000241,0.331943,1.214076,2.623174,778.92,15.00,highres
74.722517,9856350193,0.636562,0.009102,-9.749996,-0.000298,0.000069,-0.001078,0.331943,1.214076,2.623174,778.92,15.00,highres
74.729658,9856360182,0.627372,0.014176,-9.754073,-0.000901,0.000443,-0.000583,0.331943,1.214076,2.623174,778.92,15.00,highres
74.736200,9856369266,0.638798,0.013889,-9.736909,-0.000355,0.001805,0.000433,0.331943,1.214076,2.623174,778.91,15.00,highres
74.747274,9856379241,0.625311,0.006845,-9.746019,-0.000132,0.000514,-0.000951,0.317739,1.202678,2.635939,778.91,15.00,highres
74.756416,9856391267,0.641050,0.003706,-9.749932,-0.000104,-0.000149,0.000079,0.317771,1.208414,2.628668,778.91,15.00,highres
74.763966,9856400255,0.630315,0.007662,-9.748003,-0.000189,0.001706,-0.000086,0.317771,1.208414,2.628668,778.91,15.00,highres
74.781628,9856412711,0.646847,0.008848,-9.738746,-0.000385,0.001378,-0.000635,0.317771,1.208414,2.628668,778.91,15.00,highres
74.788643,9856420399,0.645661,0.011214,-9.734303,0.000226,0.000884,0.000525,0.317771,1.208414,2.628668,778.91,15.00,highres
74.796541,9856433017,0.632150,0.002020,-9.747922,-0.000385,0.000898,0.000394,0.317771,1.208414,2.628668,778.91,15.00,highres
74.811988,9856437782,0.637248,0.003761,-9.732971,-0.000786,0.000452,-0.000602,0.317771,1.208414,2.628668,778.91,15.00,highres
74.820858,9856450294,0.634326,0.004662,-9.745116,0.000561,0.001014,-0.000894,0.317771,1.208414,2.628668,778.92,15.00,highres
74.831001,9856458039,0.626817,0.014767,-9.742721,0.000226,0.000619,-0.000172,0.317771,1.208414,2.628668,778.92,15.00,highres
74.837032,9856468573,0.629510,0.003481,-9.737954,0.000686,0.001378,0.000520,0.317771,1.208414,2.628668,778.92,15.00,highres
74.847828,9856480360,0.628003,0.013205,-9.748538,-0.000691,0.001760,-0.000353,0.317771,1.208414,2.628668,778.92,15.00,highres
74.856703,9856485814,0.639037,0.009742,-9.748646,-0.000833,0.000503,-0.000392,0.317771,1.208414,2.628668,778.92,15.00,highres
74.863567,9856501624,0.626509,0.005268,-9.756468,-0.000542,0.001989,0.000062,0.317771,1.208414,2.628668,778.92,15.00,highres
74.879686,9856510543,0.633854,0.002452,-9.745953,-0.001565,0.001989,-0.000044,0.317771,1.208414,2.628668,778.92,15.00,highres
74.888347,9856515942,0.642775,0.004497,-9.754007,-0.000631,0.001319,-0.000392,0.322450,1.198328,2.631869,778.92,15.00,highres
74.895721,9856520620,0.635766,0.003512,-9.760379,-0.000947,0.000698,-0.000086,0.326738,1.200721,2.647512,778.93,15.00,highres
74.913577,9856533912,0.644329,0.004779,-9.752742,0.000356,0.000637,-0.000392,0.326738,1.200721,2.647512,778.93,15.00,highres
74.923203,9856542481,0.648701,0.009908,-9.752526,-0.000207,0.001301,-0.000442,0.326738,1.200721,2.647512,778.93,15.00,highres
74.929303,9856549165,0.635812,0.003298,-9.747740,0.000368,0.000923,-0.000527,0.326738,1.200721,2.647512,778.93,15.00,highres
74.937486,9856558633,0.632494,0.006465,-9.740907,-0.000679,0.000315,-0.000708,0.326738,1.200721,2.647512,778.93,15.00,highres
74.946352,9856566456,0.628903,0.007662,-9.748392,-0.000332,0.001431,-0.000529,0.326738,1.200721,2.647512,778.93,15.00,highres
74.957249,9856580424,0.637282,0.005268,-9.750483,0.000493,0.000640,-0.000608,0.326738,1.200721,2.647512,778.93,15.00,highres
74.963490,9856590869,0.632184,0.006358,-9.746422,-0.000080,0.000156,-0.000086,0.326738,1.200721,2.647512,778.93,15.00,highres
74.981916,9856596017,0.633765,0.013838,-9.741881,0.000739,0.002502,-0.000403,0.326738,1.200721,2.647512,778.93,15.00,highres
74.987646,9856622794,0.634888,0.009317,-9.748089,-0.000385,0.001636,-0.000697,0.326738,1.200721,2.647512,778.93,15.00,highres
74.996019,9856631447,0.634544,0.013303,-9.737054,0.000016,0.001064,-0.000592,0.326738,1.200721,2.647512,778.93,15.00,highres
75.012622,9856642861,0.634761,0.014276,-9.747270,-0.000540,0.000925,-0.000539,0.326738,1.200721,2.647512,778.93,15.00,highres
75.020736,9856648578,0.636085,0.001677,-9.749286,0.000531,0.000462,0.000525,0.326738,1.200721,2.647512,778.93,15.00,highres
75.035682,9856663068,0.647145,0.002874,-9.751966,-0.000138,0.000636,-0.000515,0.322683,1.202522,2.631374,778.93,15.00,highres
75.037234,9856669408,0.645256,0.009690,-9.742450,-0.000426,0.001948,-0.000605,0.315995,1.203447,2.635174,778.93,15.00,highres
75.044082,9856679478,0.634888,0.007662,-9.740906,-0.000691,0.000462,0.000830,0.315995,1.203447,2.635174,778.92,15.00,highres
75.058182,9856685563,0.631297,0.010905,-9.734921,0.000674,-0.000311,0.000362,0.315995,1.203447,2.635174,778.92,15.00,highres
75.074125,9856695883,0.639221,0.012163,-9.753906,-0.000080,0.000462,0.000830,0.315995,1.203447,2.635174,778.92,15.00,highres
75.074125,9856709313,0.632199,0.002516,-9.743656,0.000745,0.001104,-0.000269,0.315995,1.203447,2.635174,778.92,15.00,highres
75.091979,9856717840,0.628903,0.013647,-9.748087,0.000531,0.001378,-0.000086,0.315995,1.203447,2.635174,778.92,15.00,highres
75.096814,9856729472,0.640174,0.016242,-9.741902,0.000484,0.002835,-0.000815,0.315995,1.203447,2.635174,778.92,15.00,highres
75.112122,9856740001,0.643620,0.012028,-9.742490,-0.000809,0.000393,-0.001377,0.315995,1.203447,2.635174,778.92,15.00,highres
75.122233,9856750688,0.634082,0.009861,-9.742631,0.000396,0.001904,0.000390,0.315995,1.203447,2.635174,778.92,15.00,highres
75.131210,9856757705,0.629051,0.008859,-9.744645,0.000729,0.002277,0.000543,0.315995,1.203447,2.635174,778.92,15.00,highres
75.136427,9856769541,0.622918,0.005268,-9.744497,0.000226,0.001378,0.000219,0.315995,1.203447,2.635174,778.92,15.00,highres
75.146358,9856779154,0.636619,0.011603,-9.739543,0.000379,0.002144,-0.000238,0.315995,1.203447,2.635174,778.92,15.00,highres
75.160336,9856786146,0.630596,0.014075,-9.739711,-0.000080,0.000506,-0.000261,0.315995,1.203447,2.635174,778.92,15.00,highres
75.163801,9856798093,0.646859,0.008859,-9.742203,-0.000312,0.001757,0.000378,0.320482,1.205319,2.633466,778.92,15.00,highres
75.181184,9856811936,0.623728,0.009253,-9.742898,0.000137,0.001054,0.000003,0.324945,1.197536,2.638142,778.92,15.00,highres
75.195863,9856822971,0.642659,0.003908,-9.753037,-0.000275,0.000792,-0.000379,0.324945,1.197536,2.638142,778.92,15.00,highres
75.200586,9856829317,0.642866,-0.004388,-9.753593,-0.000959,-0.000589,-0.000025,0.324945,1.197536,2.638142,778.92,15.00,highres
75.213319,9856838138,0.639587,0.008948,-9.747076,-0.000080,0.002294,-0.000697,0.324945,1.197536,2.638142,778.93,15.00,highres
75.223199,9856843451,0.627445,0.008598,-9.742832,0.000837,0.000767,0.000678,0.324945,1.197536,2.638142,778.93,15.00,highres
75.230911,9856859717,0.634888,0.020829,-9.742103,-0.001110,0.001073,-0.000143,0.324945,1.197536,2.638142,778.93,15.00,highres
75.238943,9856871466,0.633316,0.012075,-9.752876,0.000942,-0.000539,-0.000687,0.324945,1.197536,2.638142,778.93,15.00,highres
75.246061,9856878210,0.644270,0.018964,-9.744108,-0.000129,0.002160,-0.000001,0.324945,1.197536,2.638142,778.93,15.00,highres
75.256759,9856888793,0.634459,0.015499,-9.749714,0.000698,0.000658,-0.000253,0.324945,1.197536,2.638142,778.93,15.00,highres
75.266182,9856900834,0.635128,0.013886,-9.744734,-0.000068,0.000579,0.000113,0.324945,1.197536,2.638142,778.93,15.00,highres
75.281676,9856911602,0.639596,0.020032,-9.747211,0.000389,0.001215,0.000525,0.324945,1.197536,2.638142,778.93,15.00,highres
75.288097,9856918337,0.640272,0.007420,-9.747374,-0.000293,0.000981,0.000219,0.324945,1.197536,2.638142,778.93,15.00,highres
75.296680,9856928755,0.629509,0.013056,-9.743268,-0.000385,0.001989,-0.000392,0.324945,1.197536,2.638142,778.93,15.00,highres
75.312610,9856932989,0.631054,0.009096,-9.746896,-0.000687,0.001533,0.000525,0.320031,1.199665,2.631737,778.93,15.00,highres
75.321308,9856938918,0.633204,0.006507,-9.744719,-0.000683,0.002451,0.000070,0.310523,1.187035,2.646686,778.93,15.00,highres
75.330506,9856953892,0.628112,0.015228,-9.746485,-0.000385,0.001273,-0.000518,0.310523,1.187035,2.646686,778.93,15.00,highres
75.337461,9856966054,0.638479,0.011253,-9.745692,0.000226,0.000959,0.000184,0.310523,1.187035,2.646686,778.93,15.00,highres
75.345617,9856982471,0.646888,0.008859,-9.752907,0.000837,0.001989,0.000080,0.310523,1.187035,2.646686,778.93,15.00,highres
75.356824,9856989176,0.634141,0.001677,-9.741854,0.000162,0.001874,-0.000939,0.310523,1.187035,2.646686,778.93,15.00,highres
75.356824,9856998406,0.640269,0.015437,-9.741495,-0.000219,0.001352,0.000219,0.310523,1.187035,2.646686,778.93,15.00,highres
75.356824,9857010016,0.636085,0.004071,-9.740907,0.000226,0.001378,-0.000392,0.310523,1.187035,2.646686,778.93,15.00,highres
75.356824,9857016348,0.632901,0.009654,-9.742500,-0.000310,0.000894,-0.000288,0.310523,1.187035,2.646686,778.93,15.00,highres
75.397651,9857030151,0.644694,0.007178,-9.748087,0.001315,0.001603,0.000698,0.310523,1.187035,2.646686,778.93,15.00,highres
75.413175,9857040969,0.636862,0.009604,-9.734565,-0.000191,0.001267,-0.000670,0.310523,1.187035,2.646686,778.93,15.00,highres
75.422716,9857046410,0.639238,0.008859,-9.740028,0.000387,0.000945,-0.000553,0.310523,1.187035,2.646686,778.93,15.00,highres
75.430449,9857057227,0.630699,0.007664,-9.749285,-0.000385,0.000646,-0.001187,0.310523,1.187035,2.646686,778.93,15.00,highres
75.435658,9857069697,0.632206,0.012036,-9.747592,0.000010,0.000678,0.000417,0.310523,1.187035,2.646686,778.93,15.00,highres
75.445723,9857073527,0.628621,0.009745,-9.748647,0.000051,0.000677,0.001161,0.327245,1.203261,2.632431,778.93,15.00,highres
75.458084,9857092796,0.633473,0.010169,-9.752515,-0.000280,0.000287,-0.001119,0.309801,1.204846,2.621975,778.92,15.00,highres
75.464284,9857103408,0.635335,0.010407,-9.743548,-0.000180,0.000920,-0.000581,0.309801,1.204846,2.621975,778.92,15.00,highres
75.480550,9857109394,0.639651,0.006453,-9.743131,0.000218,0.002618,0.000826,0.309801,1.204846,2.621975,778.92,15.00,highres
75.491442,9857119137,0.632456,0.008041,-9.750326,0.000218,0.001290,-0.000598,0.309801,1.204846,2.621975,778.92,15.00,highres
75.496716,9857131638,0.636292,0.004047,-9.754881,0.000156,0.001154,0.000583,0.309801,1.204846,2.621975,778.92,15.00,highres
75.503725,9857136259,0.640175,0.015456,-9.744951,-0.000141,0.001756,-0.000090,0.309801,1.204846,2.621975,778.92,15.00,highres
75.521027,9857149744,0.633398,0.010196,-9.746779,0.000218,0.001755,0.000269,0.309801,1.204846,2.621975,778.92,15.00,highres
75.532652,9857158362,0.635346,0.020340,-9.753428,0.000097,0.002007,-0.000517,0.309801,1.204846,2.621975,778.92,15.00,highres
75.536998,9857171261,0.637257,0.011242,-9.741934,-0.000263,0.000480,0.000086,0.309801,1.204846,2.621975,778.92,15.00,highres
75.547848,9857184679,0.640578,0.001571,-9.742486,0.000354,0.002177,-0.000836,0.309801,1.204846,2.621975,778.92,15.00,highres
75.557637,9857191033,0.639100,0.003605,-9.740366,-0.000387,0.002618,-0.001006,0.309801,1.204846,2.621975,778.92,15.00,highres
75.564867,9857199469,0.639651,0.008848,-9.741933,-0.000087,0.001702,-0.001617,0.309801,1.204846,2.621975,778.92,15.00,highres
75.581649,9857210323,0.643242,0.010045,-9.737146,0.000218,0.001702,0.000215,0.309801,1.204846,2.621975,778.92,15.00,highres
75.589332,9857219052,0.644695,0.009104,-9.750611,0.000284,0.001396,0.000030,0.325220,1.201193,2.631363,778.92,15.00,highres
75.596327,9857231165,0.630728,0.011564,-9.750533,-0.000270,0.002067,-0.000887,0.313301,1.182487,2.639640,778.92,15.00,highres
75.614044,9857241880,0.637297,0.009345,-9.750354,0.000524,0.000996,-0.001179,0.313301,1.182487,2.639640,778.92,15.00,highres
75.621559,9857254358,0.640041,0.004425,-9.743107,0.000544,0.000806,-0.000287,0.313301,1.182487,2.639640,778.92,15.00,highres
75.629281,9857258918,0.637930,0.000674,-9.746667,-0.000579,0.000666,-0.000396,0.313301,1.182487,2.639640,778.92,15.00,highres
75.635879,9857269986,0.639651,0.011242,-9.751511,-0.000087,0.000175,-0.001006,0.313301,1.182487,2.639640,778.92,15.00,highres
75.645716,9857281978,0.650121,0.011848,-9.751208,-0.000581,0.001136,-0.000324,0.313301,1.182487,2.639640,778.92,15.00,highres
75.660649,9857287069,0.644439,0.011242,-9.744328,0.000617,0.000998,-0.000356,0.313301,1.182487,2.639640,778.92,15.00,highres
75.665444,9857294096,0.635101,0.013466,-9.735146,0.000092,0.001290,-0.000791,0.313301,1.182487,2.639640,778.92,15.00,highres
75.682912,9857309852,0.635844,0.015049,-9.757064,-0.000582,-0.000014,-0.001079,0.313301,1.182487,2.639640,778.92,15.00,highres
75.687747,9857322292,0.629111,0.017709,-9.750765,-0.000757,0.001519,0.000152,0.313301,1.182487,2.639640,778.93,15.00,highres
75.696229,9857329398,0.630234,0.007342,-9.747659,-0.000605,0.001303,-0.000489,0.313301,1.182487,2.639640,778.93,15.00,highres
75.713101,9857341307,0.642045,0.016124,-9.742487,0.000524,0.000833,0.000074,0.313301,1.182487,2.639640,778.93,15.00,highres
75.720925,9857347030,0.626049,0.019621,-9.742509,0.000678,0.002618,0.000672,0.313301,1.182487,2.639640,778.93,15.00,highres
75.729663,9857363750,0.627361,0.016907,-9.735831,-0.000371,0.001620,-0.000008,0.321855,1.199839,2.636203,778.93,15.00,highres
75.738829,9857371037,0.637400,0.008437,-9.752296,-0.000247,0.000640,0.000200,0.328290,1.202559,2.634549,778.93,15.00,highres
75.746723,9857379070,0.642243,0.011105,-9.753440,-0.000767,0.001633,0.000028,0.328290,1.202559,2.634549,778.93,15.00,highres
75.756358,9857389004,0.636060,0.016030,-9.749116,0.000524,0.002007,0.000215,0.328290,1.202559,2.634549,778.93,15.00,highres
75.767295,9857398840,0.628113,0.010914,-9.762177,-0.001003,0.001574,-0.001135,0.328290,1.202559,2.634549,778.93,15.00,highres
75.779966,9857408890,0.630909,0.017952,-9.750314,0.000218,0.000480,0.000521,0.328290,1.202559,2.634549,778.93,15.00,highres
75.788557,9857421423,0.638218,0.011242,-9.747666,-0.000235,0.001547,-0.000553,0.328290,1.202559,2.634549,778.93,15.00,highres
75.795634,9857428602,0.642724,0.011242,-9.745704,0.000038,0.000821,0.000198,0.328290,1.202559,2.634549,778.93,15.00,highres
75.812756,9857433966,0.636721,0.004312,-9.754030,-0.000382,0.000964,0.000521,0.328290,1.202559,2.634549,778.93,15.00,highres
75.821623,9857449013,0.631271,0.002862,-9.743131,-0.000471,0.000899,0.000215,0.328290,1.202559,2.634549,778.93,15.00,highres
75.830697,9857458745,0.638454,0.013636,-9.747918,-0.000087,0.001845,0.000378,0.328290,1.202559,2.634549,778.93,15.00,highres
75.837228,9857469350,0.634249,0.006863,-9.751510,-0.000216,0.001412,-0.000396,0.328290,1.202559,2.634549,778.93,15.00,highres
75.846910,9857481857,0.630277,0.014336,-9.746497,0.000039,0.001096,0.000031,0.328290,1.202559,2.634549,778.93,15.00,highres
75.857475,9857489583,0.629116,0.005895,-9.741815,0.000958,0.000078,-0.000701,0.328290,1.202559,2.634549,778.93,15.00,highres
75.865282,9857501378,0.630556,0.014833,-9.741458,-0.000863,0.000786,-0.000536,0.318302,1.208485,2.635691,778.93,15.00,highres
75.881206,9857507720,0.627913,-0.005483,-9.740737,0.000356,0.001396,-0.000090,0.323751,1.203868,2.637000,778.93,15.00,highres
75.888072,9857513949,0.635640,0.007700,-9.748648,0.001135,0.001091,-0.000090,0.323751,1.203868,2.637000,778.93,15.00,highres
75.900771,9857526955,0.634141,-0.003065,-9.758332,0.000025,0.002119,0.000215,0.323751,1.203868,2.637000,778.93,15.00,highres
75.912681,9857539201,0.632001,0.015242,-9.732038,-0.000172,0.001396,0.000435,0.323751,1.203868,2.637000,778.93,15.00,highres
75.921589,9857549152,0.635299,-0.002190,-9.744592,0.000278,0.000480,0.000283,0.323751,1.203868,2.637000,778.93,15.00,highres
75.930436,9857559061,0.641925,0.005196,-9.743759,-0.000553,0.000190,-0.000090,0.323751,1.203868,2.637000,778.93,15.00,highres
75.939687,9857567487,0.637959,0.002533,-9.745008,-0.000566,0.001307,-0.000048,0.323751,1.203868,2.637000,778.92,15.00,highres
75.947058,9857579526,0.645036,0.014840,-9.741930,-0.001003,0.000937,-0.000854,0.323751,1.203868,2.637000,778.92,15.00,highres
75.958372,9857594788,0.636508,-0.000280,-9.747468,-0.001490,0.001988,0.000340,0.323751,1.203868,2.637000,778.92,15.00,highres
75.966125,9857599621,0.634863,-0.001926,-9.750313,0.000150,0.000888,-0.001481,0.323751,1.203868,2.637000,778.92,15.00,highres
75.981666,9857609366,0.638098,0.009085,-9.748157,-0.000087,0.000966,-0.001061,0.323751,1.203868,2.637000,778.92,15.00,highres
75.988996,9857619359,0.633665,0.012763,-9.749624,-0.000884,0.000613,-0.001006,0.323751,1.203868,2.637000,778.92,15.00,highres
75.996476,9857624099,0.632562,0.012439,-9.739916,0.000524,0.001091,0.000521,0.323751,1.203868,2.637000,778.92,15.00,highres
76.012735,9857636664,0.633776,0.004713,-9.760322,0.000218,0.001163,-0.000746,0.315952,1.206747,2.636288,778.92,15.00,highres
76.016073,9857647065,0.633732,0.017859,-9.751779,0.000113,0.001391,0.000110,0.330897,1.194790,2.629006,778.92,15.00,highres
76.030926,9857657057,0.624124,0.020008,-9.753904,0.000415,0.001180,-0.000021,0.330897,1.194790,2.629006,778.92,15.00,highres
76.036492,9857670068,0.643337,0.010976,-9.756205,-0.000575,0.000362,-0.000396,0.330897,1.194790,2.629006,778.92,15.00,highres
76.046751,9857676564,0.634774,0.002763,-9.752895,-0.000263,0.000831,0.000215,0.330897,1.194790,2.629006,778.92,15.00,highres
76.057847,9857686850,0.633099,0.002608,-9.743634,0.000454,0.000966,-0.001242,0.330897,1.194790,2.629006,778.92,15.00,highres
76.065646,9857699445,0.636060,0.011242,-9.751511,-0.000295,0.001910,-0.000396,0.330897,1.194790,2.629006,778.92,15.00,highres
76.082237,9857710067,0.637257,0.013636,-9.745525,0.000218,0.000786,-0.000396,0.330897,1.194790,2.629006,778.92,15.00,highres
76.088086,9857719491,0.637747,-0.005431,-9.752750,-0.000098,0.001691,0.000532,0.330897,1.194790,2.629006,778.92,15.00,highres
76.103301,9857729490,0.626278,0.008848,-9.742097,0.000330,-0.000600,-0.000589,0.330897,1.194790,2.629006,778.91,15.00,highres
76.112985,9857742187,0.627277,0.008444,-9.743124,-0.000086,0.001599,-0.000804,0.330897,1.194790,2.629006,778.91,15.00,highres
76.122320,9857746971,0.639369,0.006960,-9.754313,0.000301,0.000610,-0.001571,0.330897,1.194790,2.629006,778.91,15.00,highres
76.129862,9857759854,0.632469,0.005256,-9.739541,-0.000393,0.000480,-0.000396,0.330897,1.194790,2.629006,778.91,15.00,highres
76.135571,9857769843,0.635736,-0.003235,-9.747483,0.000271,0.001323,0.000036,0.330897,1.194790,2.629006,778.91,15.00,highres
76.146028,9857776576,0.636575,0.012935,-9.739374,0.000354,0.000786,-0.001057,0.327589,1.201488,2.628254,778.91,15.00,highres
76.156795,9857790205,0.637173,0.014917,-9.743711,-0.000161,0.000638,-0.000880,0.302597,1.212268,2.634701,778.91,15.00,highres
76.164482,9857794289,0.645369,0.013497,-9.740213,0.000319,0.002108,-0.000022,0.302597,1.212268,2.634701,778.91,15.00,highres
76.182033,9857804113,0.638915,0.013730,-9.745158,-0.000087,0.001091,-0.001312,0.302597,1.212268,2.634701,778.91,15.00,highres
76.193608,9857817531,0.630074,0.007650,-9.749117,0.000574,0.000786,0.000088,0.302597,1.212268,2.634701,778.91,15.00,highres
76.196440,9857822355,0.637561,0.008260,-9.743293,0.000218,0.001396,-0.000396,0.302597,1.212268,2.634701,778.91,15.00,highres
76.214294,9857833976,0.642166,0.009869,-9.761143,0.000028,0.001817,0.000025,0.302597,1.212268,2.634701,778.91,15.00,highres
76.222167,9857838960,0.632379,0.015498,-9.741180,0.000070,0.001554,-0.000553,0.302597,1.212268,2.634701,778.91,15.00,highres
76.231217,9857857739,0.644672,0.018657,-9.732390,-0.000518,0.000971,-0.000216,0.302597,1.212268,2.634701,778.91,15.00,highres
76.237837,9857861827,0.639652,0.018824,-9.731957,-0.000701,0.000420,-0.000153,0.302597,1.212268,2.634701,778.91,15.00,highres
76.245702,9857874577,0.640848,0.012439,-9.752707,0.000097,0.000967,-0.000031,0.302597,1.212268,2.634701,778.91,15.00,highres
76.257038,9857883891,0.633544,0.012378,-9.736397,0.000588,0.001212,0.000151,0.302597,1.212268,2.634701,778.91,15.00,highres
76.263476,9857896937,0.648690,0.016814,-9.747382,0.000398,0.000175,-0.001312,0.302597,1.212268,2.634701,778.91,15.00,highres
76.280166,9857902429,0.638581,0.014332,-9.753591,-0.000383,0.000805,-0.000849,0.302597,1.212268,2.634701,778.91,15.00,highres
76.288405,9857911794,0.629124,0.010766,-9.754380,0.000662,0.000618,-0.000811,0.314031,1.206125,2.638078,778.91,15.00,highres
76.298151,9857924210,0.638454,0.010045,-9.747919,-0.001003,0.001702,-0.000396,0.326315,1.196172,2.625089,778.91,15.00,highres
76.312324,9857934195,0.629703,0.013181,-9.752252,-0.000081,0.001252,-0.000240,0.326315,1.196172,2.625089,778.91,15.00,highres
76.322367,9857941857,0.634863,0.016030,-9.749117,0.000352,0.001435,-0.000740,0.326315,1.196172,2.625089,778.91,15.00,highres
76.329785,9857957425,0.644870,0.018657,-9.747669,0.001135,0.002007,-0.000701,0.326315,1.196172,2.625089,778.91,15.00,highres
76.336751,9857962167,0.641633,0.006381,-9.749313,0.000524,0.000287,-0.000256,0.326315,1.196172,2.625089,778.91,15.00,highres
76.346332,9857975958,0.639651,0.012439,-9.746722,-0.000698,0.001089,0.000063,0.326315,1.196172,2.625089,778.91,15.00,highres
76.360854,9857981080,0.638699,0.012439,-9.745773,-0.000087,0.002007,-0.000090,0.326315,1.196172,2.625089,778.91,15.00,highres
76.360854,9857992475,0.635697,0.008484,-9.746251,0.000102,-0.000436,-0.000701,0.326315,1.196172,2.625089,778.91,15.00,highres
76.360854,9857999437,0.633666,0.012439,-9.739540,0.000066,0.000098,-0.000701,0.326315,1.196172,2.625089,778.91,15.00,highres
76.360854,9858014512,0.634371,0.010526,-9.747908,0.000059,0.000945,-0.000224,0.326315,1.196172,2.625089,778.91,15.00,highres
76.401738,9858020766,0.635841,0.016574,-9.740737,0.000218,0.001514,-0.000584,0.326315,1.196172,2.625089,778.91,15.00,highres
76.413853,9858036570,0.631271,0.010045,-9.750313,0.000077,0.000808,0.000379,0.326315,1.196172,2.625089,778.90,15.00,highres
76.422755,9858042224,0.629629,0.009088,-9.754451,-0.000087,0.000480,-0.001006,0.326315,1.196172,2.625089,778.90,15.00,highres
76.434096,9858051679,0.634432,0.013205,-9.756729,-0.001003,0.000480,-0.000090,0.321207,1.205748,2.631881,778.90,15.00,highres
76.442559,9858059805,0.632370,0.002026,-9.743228,-0.001713,0.001603,0.000521,0.320629,1.205486,2.620075,778.90,15.00,highres
76.455063,9858069832,0.639404,0.012451,-9.739047,-0.000087,0.000175,-0.001006,0.320629,1.205486,2.620075,778.90,15.00,highres
76.458566,9858080074,0.635483,0.014962,-9.752088,-0.000308,0.001049,-0.000222,0.320629,1.205486,2.620075,778.90,15.00,highres
76.464954,9858084414,0.638544,0.012437,-9.748027,0.000068,0.000628,0.000674,0.320629,1.205486,2.620075,778.90,15.00,highres
76.481021,9858094529,0.633922,0.004058,-9.739682,-0.000167,0.000757,-0.000508,0.320629,1.205486,2.620075,778.90,15.00,highres
76.488906,9858104553,0.642016,0.004058,-9.747967,-0.000705,0.000471,0.000063,0.320629,1.205486,2.620075,778.90,15.00,highres
76.495874,9858118063,0.635749,0.008388,-9.743637,-0.000400,-0.000744,0.000220,0.320629,1.205486,2.620075,778.91,15.00,highres
76.513659,9858127364,0.638539,0.010803,-9.742856,-0.000565,-0.000133,-0.001613,0.320629,1.205486,2.620075,778.91,15.00,highres
76.522414,9858142182,0.630678,0.011814,-9.738371,0.000085,0.000372,-0.000823,0.320629,1.205486,2.620075,778.91,15.00,highres
76.531101,9858147851,0.631333,0.007558,-9.742766,-0.000469,0.000579,-0.000561,0.320629,1.205486,2.620075,778.91,15.00,highres
76.536676,9858159643,0.637506,0.005789,-9.749268,0.000270,0.000922,-0.000667,0.320629,1.205486,2.620075,778.91,15.00,highres
76.545850,9858169742,0.637834,0.006463,-9.744971,-0.000095,0.001154,-0.000697,0.320629,1.205486,2.620075,778.91,15.00,highres
76.557822,9858190205,0.630045,0.020816,-9.744376,0.000397,0.000546,-0.000205,0.320629,1.205486,2.620075,778.91,15.00,highres
76.564499,9858194651,0.632705,0.020019,-9.747035,0.000788,0.001598,0.000389,0.323848,1.204315,2.630744,778.91,15.00,highres
76.581791,9858208031,0.630045,0.012437,-9.746770,0.000930,0.001591,-0.001090,0.335160,1.215806,2.627452,778.91,15.00,highres
76.588618,9858219747,0.640378,0.019179,-9.745255,0.000160,0.001038,-0.000340,0.335160,1.215806,2.627452,778.91,15.00,highres
76.597291,9858230935,0.635536,0.007980,-9.748075,-0.000095,0.001089,-0.000290,0.335160,1.215806,2.627452,778.91,15.00,highres
76.613457,9858237956,0.630565,0.005932,-9.750205,0.000516,0.000598,0.000180,0.335160,1.215806,2.627452,778.91,15.00,highres
76.621754,9858249451,0.638424,0.004058,-9.752756,-0.000598,-0.000043,-0.001308,0.335160,1.215806,2.627452,778.91,15.00,highres
76.631193,9858259106,0.637671,0.017669,-9.741980,-0.001114,0.000677,-0.000395,0.335160,1.215806,2.627452,778.91,15.00,highres
76.637981,9858264276,0.637794,0.013420,-9.745926,-0.000314,0.000126,-0.000265,0.335160,1.215806,2.627452,778.91,15.00,highres
76.646112,9858282871,0.644832,0.008424,-9.754375,-0.000029,0.000173,-0.000762,0.335160,1.215806,2.627452,778.91,15.00,highres
76.657297,9858287720,0.638386,0.005274,-9.745533,0.000516,0.000478,0.000325,0.335160,1.215806,2.627452,778.91,15.00,highres
76.665121,9858298018,0.639621,0.022013,-9.741982,-0.000095,0.000173,-0.000391,0.335160,1.215806,2.627452,778.91,15.00,highres
76.681041,9858307872,0.631064,0.008846,-9.740634,0.000952,-0.000087,-0.000697,0.335160,1.215806,2.627452,778.91,15.00,highres
76.689929,9858320388,0.634954,0.007770,-9.739829,0.000105,-0.000133,-0.000285,0.335160,1.215806,2.627452,778.91,15.00,highres
76.696465,9858324986,0.633120,0.016599,-9.749754,0.000361,0.001239,-0.000236,0.335160,1.215806,2.627452,778.91,15.00,highres
76.712592,9858339868,0.635467,0.011451,-9.747897,-0.000220,0.000963,-0.001020,0.322417,1.206053,2.632659,778.91,15.00,highres
76.722855,9858344970,0.635609,0.016943,-9.749164,0.000822,0.001395,-0.001002,0.326717,1.200758,2.644328,778.91,15.00,highres
76.732171,9858363731,0.641212,0.015224,-9.742785,0.000516,0.001336,0.000383,0.326717,1.200758,2.644328,778.91,15.00,highres
76.737903,9858370122,0.642015,0.010856,-9.741326,0.000822,0.001084,-0.000899,0.326717,1.200758,2.644328,778.91,15.00,highres
76.746140,9858375687,0.636743,0.015551,-9.740307,-0.001135,0.000110,-0.001245,0.326717,1.200758,2.644328,778.91,15.00,highres
76.761461,9858388993,0.627640,0.010615,-9.745593,-0.001008,0.000935,-0.000700,0.326717,1.200758,2.644328,778.91,15.00,highres
76.763595,9858395697,0.634833,0.012437,-9.741068,-0.001011,-0.000054,-0.000736,0.326717,1.200758,2.644328,778.91,15.00,highres
76.780730,9858408564,0.628582,0.011572,-9.744841,0.000584,0.000478,-0.000816,0.326717,1.200758,2.644328,778.91,15.00,highres
76.788668,9858419979,0.627116,0.009115,-9.740119,-0.000400,0.001768,-0.000867,0.326717,1.200758,2.644328,778.91,15.00,highres
76.801291,9858429948,0.647386,0.008198,-9.736384,0.001127,0.000784,-0.001613,0.326717,1.200758,2.644328,778.91,15.00,highres
76.815198,9858438129,0.633636,0.008134,-9.749391,-0.000705,0.000478,-0.001002,0.326717,1.200758,2.644328,778.91,15.00,highres
76.822119,9858443245,0.635158,0.012381,-9.746771,0.000415,0.001599,-0.001103,0.326717,1.200758,2.644328,778.91,15.00,highres
76.831250,9858455666,0.636116,0.012865,-9.752669,-0.000633,0.001520,0.000094,0.326717,1.200758,2.644328,778.91,15.00,highres
76.838570,9858465168,0.631242,0.005255,-9.740786,-0.000095,0.000026,-0.001772,0.326717,1.200758,2.644328,778.91,15.00,highres
76.845628,9858478203,0.635878,0.030095,-9.756499,-0.000802,0.001507,-0.000488,0.323847,1.202366,2.629443,778.91,15.00,highres
76.856632,9858482455,0.636030,0.010043,-9.750361,-0.000075,0.000606,-0.000697,0.335991,1.203070,2.628415,778.91,15.00,highres
76.874143,9858492499,0.637227,0.002861,-9.743179,0.000516,0.000478,-0.000697,0.335991,1.203070,2.628415,778.91,15.00,highres
76.881230,9858498072,0.640197,0.009467,-9.729302,-0.001470,0.000783,-0.000849,0.335991,1.203070,2.628415,778.91,15.00,highres
76.888812,9858513150,0.634554,0.020177,-9.753182,0.000105,0.001077,-0.000497,0.335991,1.203070,2.628415,778.91,15.00,highres
76.895909,9858525528,0.641669,0.010352,-9.750593,-0.000236,0.000290,-0.000884,0.335991,1.203070,2.628415,778.92,15.00,highres
76.913478,9858533040,0.642015,0.006452,-9.761135,-0.000780,0.000173,-0.000127,0.335991,1.203070,2.628415,778.92,15.00,highres
76.922978,9858543082,0.638136,0.010425,-9.753138,-0.000024,0.000227,-0.000931,0.335991,1.203070,2.628415,778.92,15.00,highres
76.931655,9858549975,0.633954,0.017176,-9.754586,-0.000285,0.001624,0.000563,0.335991,1.203070,2.628415,778.92,15.00,highres
76.936154,9858563348,0.636728,0.004058,-9.749504,-0.000287,0.000365,-0.000584,0.335991,1.203070,2.628415,778.92,15.00,highres
76.951350,9858568366,0.635676,0.002850,-9.748819,0.000471,0.001180,-0.000216,0.335991,1.203070,2.628415,778.92,15.00,highres
76.957304,9858572580,0.649932,0.005526,-9.750844,-0.000885,0.001215,-0.000265,0.335991,1.203070,2.628415,778.92,15.00,highres
76.966962,9858593452,0.637411,0.003292,-9.750235,-0.000216,0.001185,-0.000603,0.335991,1.203070,2.628415,778.92,15.00,highres
76.981629,9858609712,0.638013,0.003164,-9.755847,-0.000095,0.000606,-0.000747,0.335991,1.203070,2.628415,778.92,15.00,highres
76.987910,9858619979,0.645441,0.015172,-9.734625,-0.000095,0.001002,-0.000915,0.326768,1.202290,2.639593,778.92,15.00,highres
76.995336,9858630547,0.642015,0.011240,-9.749164,-0.000400,-0.001660,0.000220,0.334738,1.207746,2.632005,778.92,15.00,highres
77.013604,9858640203,0.641695,0.017107,-9.750833,-0.000899,0.000753,-0.000391,0.334738,1.207746,2.632005,778.92,15.00,highres
77.021609,9858650075,0.640186,0.007860,-9.748034,-0.000400,-0.000061,-0.000391,0.334738,1.207746,2.632005,778.92,15.00,highres
77.031444,9858663218,0.633865,0.005739,-9.749165,0.000633,0.001271,-0.000879,0.334738,1.207746,2.632005,778.92,15.00,highres
77.036501,9858668456,0.631456,0.016182,-9.754320,-0.000839,-0.000172,-0.000430,0.334738,1.207746,2.632005,778.92,15.00,highres
77.046050,9858672507,0.624171,0.010043,-9.743749,0.000211,0.000187,-0.001293,0.334738,1.207746,2.632005,778.92,15.00,highres
77.057629,9858690936,0.644216,0.010472,-9.757495,0.000549,-0.000133,-0.001477,0.334738,1.207746,2.632005,778.92,15.00,highres
77.063850,9858695581,0.648360,0.024407,-9.747762,-0.000705,0.000173,-0.000576,0.334738,1.207746,2.632005,778.92,15.00,highres
77.081833,9858711084,0.635401,-0.003569,-9.759691,-0.000400,0.000463,-0.000086,0.334738,1.207746,2.632005,778.92,15.00,highres
77.089321,9858718405,0.636362,0.013533,-9.746337,-0.000779,0.001089,-0.001308,0.334738,1.207746,2.632005,778.92,15.00,highres
77.096254,9858728646,0.632852,0.015615,-9.748380,0.000105,0.000373,-0.001013,0.334738,1.207746,2.632005,778.92,15.00,highres
77.113558,9858733263,0.638424,0.019426,-9.745573,0.000516,0.000478,-0.000697,0.334738,1.207746,2.632005,778.92,15.00,highres
77.122583,9858750553,0.633636,-0.003125,-9.747967,0.000305,0.000478,-0.000861,0.334738,1.207746,2.632005,778.92,15.00,highres
77.130789,9858761109,0.627384,0.013634,-9.741794,0.000102,0.000981,-0.000588,0.323340,1.201311,2.633173,778.92,15.00,highres
77.136197,9858769290,0.642015,0.013372,-9.756609,0.000356,0.000493,-0.000231,0.319510,1.211690,2.630078,778.92,15.00,highres
77.146367,9858778680,0.641816,0.014649,-9.743977,-0.000153,0.000719,-0.000697,0.319510,1.211690,2.630078,778.92,15.00,highres
77.163136,9858789626,0.637860,0.016015,-9.742615,0.000259,0.000301,-0.000600,0.319510,1.211690,2.630078,778.92,15.00,highres
77.165007,9858795285,0.639811,0.012068,-9.754321,-0.000036,0.000543,-0.000209,0.319510,1.211690,2.630078,778.92,15.00,highres
77.181452,9858810315,0.645607,0.016028,-9.747967,0.000414,0.001904,0.000220,0.319510,1.211690,2.630078,778.92,15.00,highres
77.192961,9858820228,0.623469,0.002270,-9.754838,-0.000095,0.000328,-0.000431,0.319510,1.211690,2.630078,778.92,15.00,highres
77.199174,9858832398,0.637384,0.005255,-9.746070,-0.000104,-0.000133,0.000121,0.319510,1.211690,2.630078,778.92,15.00,highres
77.204437,9858837965,0.618211,0.002539,-9.755285,-0.000456,0.000242,0.000095,0.319510,1.211690,2.630078,778.92,15.00,highres
77.221191,9858848610,0.643393,0.007482,-9.742678,-0.000247,0.001241,0.000372,0.319510,1.211690,2.630078,778.91,15.00,highres
77.231310,9858860372,0.632192,0.017700,-9.747017,0.000070,0.000635,-0.000078,0.319510,1.211690,2.630078,778.91,15.00,highres
77.236471,9858865844,0.632014,0.009618,-9.741210,-0.000095,0.000784,-0.000697,0.319510,1.211690,2.630078,778.91,15.00,highres
77.247317,9858883340,0.637227,0.011728,-9.742958,-0.000400,0.000615,-0.001373,0.319510,1.211690,2.630078,778.91,15.00,highres
77.256532,9858888402,0.646782,0.001092,-9.747957,-0.000400,0.001677,-0.000555,0.319510,1.211690,2.630078,778.91,15.00,highres
77.267022,9858900382,0.633638,0.013636,-9.749763,0.000143,0.001564,-0.001308,0.325650,1.206478,2.633082,778.91,15.00,highres
77.281554,9858910367,0.626434,0.005922,-9.745044,0.000386,-0.000088,-0.000131,0.326512,1.201102,2.614078,778.91,15.00,highres
77.289266,9858920520,0.634547,0.006309,-9.743035,-0.001011,-0.000060,-0.000831,0.326512,1.201102,2.614078,778.91,15.00,highres
77.297648,9858925675,0.635078,0.008339,-9.748534,0.000211,0.000318,-0.001613,0.326512,1.201102,2.614078,778.91,15.00,highres
77.313149,9858941424,0.636622,0.014240,-9.748572,-0.000117,0.000293,-0.000838,0.326512,1.201102,2.614078,778.91,15.00,highres
77.322526,9858949083,0.631035,0.013634,-9.741306,0.000127,0.000646,-0.000864,0.326512,1.201102,2.614078,778.91,15.00,highres
77.329827,9858953218,0.631934,0.013382,-9.750485,-0.000095,0.000338,-0.000955,0.326512,1.201102,2.614078,778.91,15.00,highres
77.336112,9858963227,0.645166,0.006382,-9.751048,-0.001316,0.000173,-0.000391,0.326512,1.201102,2.614078,778.91,15.00,highres
77.350414,9858969958,0.637380,0.007572,-9.741608,-0.000930,0.001749,0.000027,0.326512,1.201102,2.614078,778.91,15.00,highres
77.357276,9858980482,0.633636,0.010334,-9.740817,-0.000095,0.001089,-0.000086,0.326512,1.201102,2.614078,778.91,15.00,highres
77.365025,9858991326,0.643988,0.015371,-9.747006,-0.000095,0.000478,-0.001002,0.326512,1.201102,2.614078,778.91,15.00,highres
77.365025,9859000860,0.640394,0.010467,-9.738540,-0.000705,0.000392,-0.000523,0.326512,1.201102,2.614078,778.91,15.00,highres
77.365025,9859006037,0.630825,0.011295,-9.753062,0.000394,0.000172,-0.001002,0.326512,1.201102,2.614078,778.91,15.00,highres
77.365025,9859015961,0.640296,0.003067,-9.747184,-0.000448,0.001055,-0.001532,0.326512,1.201102,2.614078,778.91,15.00,highres
77.413873,9859020739,0.631481,0.004836,-9.753653,-0.000095,0.000784,-0.001002,0.322680,1.198086,2.632678,778.91,15.00,highres
77.422787,9859033846,0.628938,0.007556,-9.750360,-0.000786,0.000703,-0.000259,0.310091,1.207867,2.637986,778.91,15.00,highres
77.434319,9859059618,0.630836,0.012031,-9.751986,-0.000292,0.001695,-0.000091,0.310091,1.207867,2.637986,778.91,15.00,highres
77.446075,9859073981,0.629990,0.014716,-9.746770,-0.000748,0.001395,-0.000581,0.310091,1.207867,2.637986,778.91,15.00,highres
77.447157,9859080882,0.627658,0.019960,-9.747801,-0.000376,0.000360,0.000008,0.310091,1.207867,2.637986,778.92,15.00,highres
77.457287,9859091527,0.636754,0.000467,-9.743901,0.000396,0.000848,-0.000825,0.310091,1.207867,2.637986,778.92,15.00,highres
77.472024,9859096758,0.630268,0.002833,-9.737222,0.000765,0.000784,-0.000029,0.310091,1.207867,2.637986,778.92,15.00,highres
77.481824,9859109635,0.644888,0.008952,-9.745091,-0.000098,-0.000167,-0.000683,0.310091,1.207867,2.637986,778.92,15.00,highres
77.489033,9859118680,0.633645,0.013637,-9.749257,0.001046,0.000444,-0.001307,0.310091,1.207867,2.637986,778.92,15.00,highres
77.495247,9859131422,0.638065,0.010325,-9.740419,-0.000300,-0.001084,-0.000083,0.310091,1.207867,2.637986,778.92,15.00,highres
77.513175,9859143261,0.636418,0.014486,-9.733256,-0.000508,0.000846,-0.000190,0.310091,1.207867,2.637986,778.92,15.00,highres
77.521351,9859151101,0.637194,0.005300,-9.751031,-0.000404,0.001212,-0.000380,0.310091,1.207867,2.637986,778.92,15.00,highres
77.531063,9859162283,0.640408,0.002653,-9.742074,0.000426,0.001665,0.000111,0.310091,1.207867,2.637986,778.92,15.00,highres
77.537972,9859166164,0.634843,0.002805,-9.745666,-0.000709,0.000541,-0.000391,0.310091,1.207867,2.637986,778.92,15.00,highres
77.549811,9859181130,0.637822,0.020457,-9.748422,0.000115,0.000962,-0.000632,0.326964,1.204731,2.631433,778.92,15.00,highres
77.557613,9859186136,0.625292,0.014885,-9.745104,0.000389,0.002029,-0.000325,0.326738,1.200721,2.647512,778.92,15.00,highres
77.564442,9859198263,0.647376,0.001385,-9.738763,0.000398,0.002066,-0.000696,0.326738,1.200721,2.647512,778.92,15.00,highres
77.580941,9859210119,0.649694,0.007783,-9.751915,0.000513,0.000547,-0.001307,0.326738,1.200721,2.647512,778.92,15.00,highres
77.590773,9859216025,0.638268,0.003720,-9.755076,-0.000491,0.000531,-0.000914,0.326738,1.200721,2.647512,778.92,15.00,highres
77.596005,9859230088,0.644004,0.004008,-9.744936,0.000513,0.000833,-0.000696,0.326738,1.200721,2.647512,778.92,15.00,highres
77.612403,9859241688,0.636698,0.013058,-9.738862,0.000522,0.001508,-0.000085,0.326738,1.200721,2.647512,778.93,15.00,highres
77.621753,9859248998,0.633083,0.005820,-9.747705,-0.000332,0.000964,0.000993,0.326738,1.200721,2.647512,778.93,15.00,highres
77.630145,9859258720,0.640109,0.007652,-9.737926,-0.001157,0.000159,-0.000595,0.326738,1.200721,2.647512,778.93,15.00,highres
77.635854,9859266240,0.631822,0.003063,-9.744925,-0.000498,0.000233,-0.000834,0.326738,1.200721,2.647512,778.93,15.00,highres
77.647149,9859283064,0.645102,0.005940,-9.744122,-0.000641,0.000375,0.000015,0.326738,1.200721,2.647512,778.93,15.00,highres
77.656963,9859289511,0.638434,0.012440,-9.751651,-0.000709,-0.000778,0.000220,0.326738,1.200721,2.647512,778.93,15.00,highres
77.673254,9859303410,0.637117,0.005976,-9.748420,-0.000264,0.001665,-0.000321,0.326738,1.200721,2.647512,778.93,15.00,highres
77.681451,9859308962,0.640828,0.006455,-9.751651,-0.000404,-0.000167,-0.000085,0.326738,1.200721,2.647512,778.93,15.00,highres
77.687332,9859318234,0.635244,0.002415,-9.751551,0.000080,0.001386,0.000220,0.322672,1.198098,2.631575,778.92,15.00,highres
77.698420,9859330661,0.628023,0.016031,-9.747307,-0.000088,0.001360,-0.000696,0.328471,1.205761,2.634638,778.92,15.00,highres
77.713792,9859342102,0.651626,0.010021,-9.751244,-0.000306,0.001464,0.000025,0.328471,1.205761,2.634638,778.92,15.00,highres
77.722065,9859346015,0.631299,0.011243,-9.749990,-0.000310,0.000538,-0.000485,0.328471,1.205761,2.634638,778.92,15.00,highres
77.729838,9859359439,0.636040,0.010046,-9.743271,-0.000194,0.001150,-0.000295,0.328471,1.205761,2.634638,778.92,15.00,highres
77.737348,9859370876,0.643679,0.016313,-9.746578,0.000654,0.000384,-0.000838,0.328471,1.205761,2.634638,778.92,15.00,highres
77.746125,9859380947,0.632813,0.009161,-9.743584,0.000300,0.001493,-0.000736,0.328471,1.205761,2.634638,778.92,15.00,highres
77.756120,9859390760,0.636862,0.014919,-9.740587,-0.000635,0.001129,-0.000696,0.328471,1.205761,2.634638,778.92,15.00,highres
77.764654,9859396172,0.624896,0.021864,-9.749039,-0.000285,0.000234,-0.001002,0.328471,1.205761,2.634638,778.92,15.00,highres
77.781853,9859409765,0.637260,0.005281,-9.749609,-0.001015,-0.000125,-0.000739,0.328471,1.205761,2.634638,778.93,15.00,highres
77.788631,9859420939,0.639082,0.001766,-9.744369,-0.000768,0.000567,-0.000755,0.328471,1.205761,2.634638,778.93,15.00,highres
77.797597,9859430897,0.640274,0.006425,-9.746772,-0.001007,0.000138,-0.000391,0.328471,1.205761,2.634638,778.93,15.00,highres
77.813133,9859438256,0.633937,0.007652,-9.744059,-0.000098,0.000391,-0.000748,0.328471,1.205761,2.634638,778.93,15.00,highres
77.822549,9859451554,0.625769,0.008849,-9.738866,-0.000019,0.002197,-0.001386,0.328471,1.205761,2.634638,778.93,15.00,highres
77.830961,9859461042,0.636951,0.014549,-9.753702,-0.000476,0.001665,0.000249,0.323891,1.202832,2.631784,778.93,15.00,highres
77.836785,9859466638,0.624722,0.006128,-9.748712,0.000152,0.000874,-0.000461,0.327912,1.223300,2.633810,778.93,15.00,highres
77.848222,9859474076,0.630903,0.005258,-9.755885,-0.000098,0.000840,-0.000391,0.327912,1.223300,2.633810,778.93,15.00,highres
77.858802,9859489452,0.638503,0.008814,-9.746177,-0.000098,0.000749,0.000370,0.327912,1.223300,2.633810,778.92,15.00,highres
77.864234,9859496612,0.642668,0.010600,-9.744745,-0.000201,0.001224,-0.000527,0.327912,1.223300,2.633810,778.92,15.00,highres
77.881360,9859513174,0.631527,0.011657,-9.749534,-0.000220,0.000077,0.000038,0.327912,1.223300,2.633810,778.92,15.00,highres
77.889640,9859521270,0.640947,0.011800,-9.744266,-0.000404,0.000546,-0.000389,0.327912,1.223300,2.633810,778.92,15.00,highres
77.895504,9859530497,0.635395,0.012715,-9.744010,-0.000098,0.000609,0.000220,0.327912,1.223300,2.633810,778.92,15.00,highres
77.912146,9859535888,0.629551,0.010740,-9.746000,-0.000074,0.001220,0.000526,0.327912,1.223300,2.633810,778.92,15.00,highres
77.922589,9859551330,0.634305,-0.000459,-9.757246,-0.000301,-0.000064,-0.000089,0.327912,1.223300,2.633810,778.92,15.00,highres
77.935508,9859561403,0.634843,0.013637,-9.749257,-0.000404,0.000444,-0.001002,0.327912,1.223300,2.633810,778.92,15.00,highres
77.936510,9859567187,0.641513,0.012267,-9.733521,0.000207,0.000909,-0.000522,0.327912,1.223300,2.633810,778.92,15.00,highres
77.954226,9859578942,0.630054,0.012440,-9.743271,-0.000404,0.001054,-0.001612,0.327912,1.223300,2.633810,778.92,15.00,highres
77.957062,9859591241,0.631014,0.013971,-9.731540,0.000629,0.000632,-0.000085,0.327912,1.223300,2.633810,778.92,15.00,highres
77.964769,9859596183,0.628857,0.010129,-9.742280,-0.000033,0.001360,-0.000866,0.321845,1.204164,2.633916,778.92,15.00,highres
77.982220,9859610184,0.639753,0.021658,-9.748775,0.000674,0.000587,0.000705,0.319270,1.206832,2.634720,778.92,15.00,highres
77.988907,9859613836,0.633689,0.011243,-9.749302,0.000008,0.000244,-0.001918,0.319270,1.206832,2.634720,778.92,15.00,highres
77.999212,9859621077,0.632701,0.021544,-9.737821,-0.000404,0.002454,-0.000785,0.319270,1.206832,2.634720,778.92,15.00,highres
78.013679,9859633666,0.648041,0.014712,-9.742515,0.000623,0.001080,-0.001527,0.319270,1.206832,2.634720,778.92,15.00,highres
78.021722,9859644506,0.638400,0.000419,-9.748110,0.000085,0.000383,0.000037,0.319270,1.206832,2.634720,778.92,15.00,highres
78.031384,9859656415,0.632211,0.008370,-9.737288,-0.000586,0.001114,-0.001307,0.319270,1.206832,2.634720,778.92,15.00,highres
78.039644,9859661269,0.639175,0.012270,-9.753249,0.000024,0.000932,-0.000452,0.319270,1.206832,2.634720,778.92,15.00,highres
78.047090,9859671960,0.635840,0.025579,-9.732783,-0.000623,0.001728,-0.001221,0.319270,1.206832,2.634720,778.92,15.00,highres
78.057997,9859684073,0.634978,0.012971,-9.745270,-0.000709,0.000749,-0.000696,0.319270,1.206832,2.634720,778.92,15.00,highres
78.064966,9859693899,0.639531,0.002615,-9.740428,-0.000273,0.000664,-0.000521,0.319270,1.206832,2.634720,778.92,15.00,highres
78.082587,9859701219,0.634981,0.007652,-9.750984,-0.000849,0.001920,0.000055,0.319270,1.206832,2.634720,778.92,15.00,highres
78.087801,9859714108,0.638434,0.017228,-9.755242,0.000085,-0.000106,-0.000452,0.319270,1.206832,2.634720,778.92,15.00,highres
78.096996,9859723656,0.635259,0.018412,-9.750870,0.000061,0.001388,-0.000377,0.319270,1.206832,2.634720,778.91,15.00,highres
78.113942,9859729002,0.633646,0.018261,-9.747109,-0.001323,-0.000263,-0.000899,0.323517,1.202570,2.631350,778.91,15.00,highres
78.123489,9859741652,0.639631,0.006985,-9.751514,0.000048,-0.000314,-0.000545,0.328620,1.209018,2.629951,778.91,15.00,highres
78.130102,9859751395,0.632577,0.007424,-9.748318,0.000058,-0.000622,0.000667,0.328620,1.209018,2.629951,778.91,15.00,highres
78.136187,9859757389,0.629700,0.005240,-9.752325,-0.000709,0.000444,0.000526,0.328620,1.209018,2.629951,778.91,15.00,highres
78.146101,9859769429,0.636864,0.010817,-9.746675,-0.000270,0.000749,0.000922,0.328620,1.209018,2.629951,778.91,15.00,highres
78.161311,9859774585,0.639631,0.022016,-9.743272,-0.000017,0.000091,-0.000438,0.328620,1.209018,2.629951,778.91,15.00,highres
78.169118,9859781919,0.637859,0.013540,-9.739728,-0.000886,0.001713,0.000349,0.328620,1.209018,2.629951,778.91,15.00,highres
78.181106,9859796492,0.629351,-0.000305,-9.754681,0.000121,0.000224,-0.000085,0.328620,1.209018,2.629951,778.91,15.00,highres
78.187685,9859803999,0.636063,0.015243,-9.750464,-0.000098,0.000058,-0.000921,0.328620,1.209018,2.629951,778.91,15.00,highres
78.197276,9859816635,0.640854,0.005297,-9.752888,-0.000714,0.000744,-0.000401,0.328620,1.209018,2.629951,778.91,15.00,highres
78.212874,9859826659,0.639805,0.016890,-9.740541,-0.000555,0.000753,-0.001009,0.328620,1.209018,2.629951,778.91,15.00,highres
78.222123,9859833333,0.634959,0.020040,-9.749616,0.000539,0.001333,-0.000780,0.328620,1.209018,2.629951,778.91,15.00,highres
78.229810,9859860909,0.641101,0.006615,-9.751651,-0.001051,0.000407,-0.000313,0.328620,1.209018,2.629951,778.91,15.00,highres
78.235627,9859871995,0.628601,0.005942,-9.754771,-0.000202,0.001659,0.000526,0.328620,1.209018,2.629951,778.91,15.00,highres
78.250565,9859883397,0.646495,0.003181,-9.755878,-0.000094,0.000544,-0.001002,0.322917,1.200591,2.629664,778.91,15.00,highres
78.256579,9859891060,0.638444,0.009465,-9.748257,-0.000300,0.001087,-0.000222,0.329463,1.196264,2.632506,778.91,15.00,highres
78.264965,9859898791,0.635214,0.005695,-9.750051,-0.000709,0.001971,0.000117,0.329463,1.196264,2.632506,778.91,15.00,highres
78.280869,9859909365,0.641494,0.020120,-9.750021,0.000453,0.001046,-0.000391,0.329463,1.196264,2.632506,778.91,15.00,highres
78.288183,9859919141,0.638557,0.006744,-9.740089,-0.000709,0.001903,-0.001002,0.329463,1.196264,2.632506,778.91,15.00,highres
78.297245,9859923996,0.633645,0.006455,-9.749257,-0.000098,0.000749,-0.000085,0.329463,1.196264,2.632506,778.91,15.00,highres
78.304488,9859938963,0.638885,0.010791,-9.748453,-0.000020,0.001227,-0.000563,0.329463,1.196264,2.632506,778.91,15.00,highres
78.321410,9859944541,0.636824,0.003256,-9.758834,-0.000677,0.001496,0.001033,0.329463,1.196264,2.632506,778.91,15.00,highres
78.330715,9859958898,0.635651,0.013701,-9.749257,0.000207,0.001566,-0.001505,0.329463,1.196264,2.632506,778.91,15.00,highres
78.338239,9859964541,0.631668,0.026024,-9.746654,-0.000697,0.000773,-0.000415,0.329463,1.196264,2.632506,778.91,15.00,highres
78.346481,9859974552,0.638846,0.013657,-9.744077,0.000417,0.001159,-0.000190,0.329463,1.196264,2.632506,778.91,15.00,highres
78.357697,9859984234,0.645889,0.008849,-9.749754,0.000083,0.001609,-0.001002,0.329463,1.196264,2.632506,778.91,15.00,highres
78.365972,9859995058,0.628566,0.007059,-9.753126,0.000046,-0.000473,0.000042,0.329463,1.196264,2.632506,778.91,15.00,highres
78.365972,9860002104,0.632909,0.007375,-9.753124,-0.000327,0.000215,0.000143,0.329463,1.196264,2.632506,778.91,15.00,highres
78.365972,9860016826,0.645113,0.013446,-9.746741,0.000393,0.000378,-0.000402,0.324428,1.203971,2.631486,778.91,15.00,highres
78.365972,9860022726,0.639045,0.015280,-9.749117,-0.000144,0.000879,-0.000039,0.314064,1.196988,2.632082,778.91,15.00,highres
78.414032,9860033991,0.627428,0.008284,-9.747094,0.000153,0.001665,0.000100,0.314064,1.196988,2.632082,778.91,15.00,highres
78.422121,9860044784,0.635487,0.005718,-9.751467,-0.000117,0.000711,0.000363,0.314064,1.196988,2.632082,778.91,15.00,highres
78.429554,9860051784,0.640764,0.012705,-9.748589,0.000615,0.002073,-0.000289,0.314064,1.196988,2.632082,778.91,15.00,highres
78.437029,9860057697,0.638127,0.007596,-9.743578,0.000633,0.001665,-0.000085,0.314064,1.196988,2.632082,778.91,15.00,highres
78.448377,9860079027,0.634407,0.000580,-9.740768,-0.000252,0.000137,-0.000391,0.314064,1.196988,2.632082,778.91,15.00,highres
78.457486,9860091704,0.638876,0.012883,-9.748503,0.000433,0.001183,-0.000440,0.314064,1.196988,2.632082,778.91,15.00,highres
78.465958,9860097500,0.633454,0.022400,-9.744969,0.000897,0.000138,-0.000263,0.314064,1.196988,2.632082,778.91,15.00,highres
78.481247,9860107629,0.638459,0.007657,-9.745959,-0.000707,0.001034,-0.000388,0.314064,1.196988,2.632082,778.91,15.00,highres
78.487997,9860117250,0.628885,0.011729,-9.742846,0.000130,0.000197,0.000873,0.314064,1.196988,2.632082,778.91,15.00,highres
78.495801,9860127796,0.627685,-0.002070,-9.746689,-0.001624,0.000562,-0.001465,0.314064,1.196988,2.632082,778.92,15.00,highres
78.512165,9860132085,0.637727,-0.001030,-9.760133,0.000721,0.000531,-0.000658,0.314064,1.196988,2.632082,778.92,15.00,highres
78.522627,9860144415,0.636784,0.005886,-9.744139,-0.000175,0.001291,-0.001048,0.314064,1.196988,2.632082,778.92,15.00,highres
78.531324,9860155059,0.636776,0.006979,-9.750070,0.000514,0.000729,-0.000082,0.324780,1.205952,2.631867,778.92,15.00,highres
78.535803,9860164537,0.637262,0.002869,-9.739975,0.000222,0.000716,0.000821,0.309963,1.204574,2.645857,778.92,15.00,highres
78.550462,9860169581,0.642025,0.006997,-9.738192,-0.000096,0.001034,0.001139,0.309963,1.204574,2.645857,778.92,15.00,highres
78.557586,9860190716,0.635794,0.014385,-9.744855,0.000114,0.001172,0.000351,0.309963,1.204574,2.645857,778.92,15.00,highres
78.563633,9860194705,0.633133,0.011248,-9.752645,-0.000707,0.000269,0.000158,0.309963,1.204574,2.645857,778.92,15.00,highres
78.581186,9860205457,0.630599,0.012445,-9.737736,0.000338,0.001453,-0.000082,0.309963,1.204574,2.645857,778.93,15.00,highres
78.590546,9860216856,0.636674,0.018437,-9.746546,-0.000799,0.002067,0.000364,0.309963,1.204574,2.645857,778.93,15.00,highres
78.595651,9860227243,0.645970,0.008854,-9.748023,0.000679,0.000354,0.000387,0.309963,1.204574,2.645857,778.93,15.00,highres
78.612885,9860239335,0.636310,0.005448,-9.754614,-0.000159,0.001097,-0.000325,0.309963,1.204574,2.645857,778.93,15.00,highres
78.622639,9860250572,0.647488,0.007450,-9.742131,-0.000070,0.000921,-0.000388,0.309963,1.204574,2.645857,778.93,15.00,highres
78.630771,9860262515,0.636874,0.013288,-9.744373,-0.000566,0.000893,-0.000000,0.309963,1.204574,2.645857,778.93,15.00,highres
78.635560,9860267214,0.640966,0.011677,-9.743994,0.000390,0.000720,-0.000569,0.309963,1.204574,2.645857,778.93,15.00,highres
78.646528,9860279541,0.636064,0.018430,-9.743564,-0.000752,0.000554,-0.000082,0.309963,1.204574,2.645857,778.92,15.00,highres
78.657099,9860284395,0.638293,0.015871,-9.739973,-0.000564,0.001340,0.000690,0.309963,1.204574,2.645857,778.92,15.00,highres
78.672700,9860301771,0.639385,0.014621,-9.749112,0.000084,0.000798,-0.001054,0.318566,1.202871,2.633959,778.92,15.00,highres
78.680259,9860307471,0.633118,0.011678,-9.756794,-0.000958,0.000423,-0.001179,0.330640,1.191715,2.617772,778.92,15.00,highres
78.688534,9860322397,0.636238,0.008339,-9.746468,-0.000229,0.000476,0.000476,0.330640,1.191715,2.617772,778.92,15.00,highres
78.695634,9860333256,0.636348,0.002586,-9.745154,0.000163,0.001294,0.000364,0.330640,1.191715,2.617772,778.92,15.00,highres
78.711848,9860337453,0.632506,0.006427,-9.753174,-0.001013,0.000423,0.000903,0.330640,1.191715,2.617772,778.92,15.00,highres
78.721399,9860348335,0.636638,0.007162,-9.757228,0.000045,0.001362,0.000857,0.330640,1.191715,2.617772,778.92,15.00,highres
78.730349,9860359358,0.638054,0.013108,-9.752219,-0.000248,0.001346,-0.000236,0.330640,1.191715,2.617772,778.92,15.00,highres
78.736563,9860371689,0.637262,0.013642,-9.753141,0.000043,0.001174,0.000057,0.330640,1.191715,2.617772,778.92,15.00,highres
78.751190,9860384660,0.633005,0.014506,-9.743765,-0.001318,0.001119,-0.000218,0.330640,1.191715,2.617772,778.92,15.00,highres
78.758590,9860390250,0.629477,0.016036,-9.747154,-0.000178,-0.000459,-0.000693,0.330640,1.191715,2.617772,778.92,15.00,highres
78.764334,9860402378,0.630313,0.002650,-9.737083,-0.000316,0.000681,0.000528,0.330640,1.191715,2.617772,778.92,15.00,highres
78.780986,9860408033,0.632586,0.001461,-9.752494,-0.000901,0.000394,-0.000305,0.330640,1.191715,2.617772,778.92,15.00,highres
78.790565,9860417395,0.649507,0.017694,-9.744486,0.000773,0.000423,-0.001069,0.330640,1.191715,2.617772,778.92,15.00,highres
78.795294,9860430472,0.631276,0.005263,-9.743566,0.000009,0.000629,-0.000490,0.330640,1.191715,2.617772,778.92,15.00,highres
78.813233,9860442435,0.633670,0.016036,-9.742368,0.000075,0.000485,0.000223,0.322923,1.200717,2.629422,778.92,15.00,highres
78.821603,9860451992,0.636683,0.008863,-9.748027,0.000346,0.001202,-0.000800,0.315306,1.192330,2.626900,778.92,15.00,highres
78.831351,9860456937,0.634341,0.008183,-9.741170,-0.000566,0.000282,-0.000789,0.315306,1.192330,2.626900,778.92,15.00,highres
78.836795,9860462656,0.631276,0.005263,-9.744761,0.000514,0.000729,0.000528,0.315306,1.192330,2.626900,778.92,15.00,highres
78.848235,9860479860,0.634884,0.010051,-9.746908,0.000514,0.000968,-0.000020,0.315306,1.192330,2.626900,778.92,15.00,highres
78.858652,9860489593,0.641037,0.006644,-9.746696,-0.000254,0.001655,-0.000397,0.315306,1.192330,2.626900,778.92,15.00,highres
78.869008,9860499852,0.639455,0.008188,-9.743629,0.000650,0.001543,-0.000354,0.315306,1.192330,2.626900,778.92,15.00,highres
78.880443,9860504964,0.637242,0.010032,-9.742736,0.000514,0.001340,-0.000388,0.315306,1.192330,2.626900,778.92,15.00,highres
78.887434,9860524625,0.631765,0.012311,-9.746580,0.000795,0.001843,-0.000528,0.315306,1.192330,2.626900,778.92,15.00,highres
78.897926,9860530210,0.625654,0.010728,-9.756371,0.000913,0.001566,-0.000999,0.315306,1.192330,2.626900,778.92,15.00,highres
78.913251,9860541886,0.632897,0.013431,-9.752860,-0.000283,0.000593,-0.000575,0.315306,1.192330,2.626900,778.92,15.00,highres
78.921014,9860547025,0.630079,0.010051,-9.739974,-0.000164,0.000170,0.000037,0.315306,1.192330,2.626900,778.92,15.00,highres
78.934924,9860562351,0.628026,0.011248,-9.744819,0.000820,0.000913,0.000223,0.315306,1.192330,2.626900,778.92,15.00,highres
78.938114,9860567595,0.626306,0.009028,-9.740662,-0.000024,0.000612,-0.000388,0.315306,1.192330,2.626900,778.92,15.00,highres
78.955681,9860581691,0.636727,0.009614,-9.750408,0.000397,0.001082,-0.000270,0.323508,1.203996,2.635331,778.92,15.00,highres
78.958174,9860592621,0.638459,0.006460,-9.755536,0.000142,0.000812,-0.000678,0.336756,1.214060,2.647833,778.92,15.00,highres
78.966464,9860599985,0.630331,0.008350,-9.752447,0.000209,0.000165,-0.000710,0.336756,1.214060,2.647833,778.91,15.00,highres
78.982002,9860610161,0.630448,0.013768,-9.745365,0.000941,0.001461,-0.000693,0.336756,1.214060,2.647833,778.91,15.00,highres
78.988813,9860621588,0.635655,0.010067,-9.760581,0.000055,0.001488,0.000069,0.336756,1.214060,2.647833,778.91,15.00,highres
78.997154,9860631628,0.633481,0.005943,-9.753821,0.000044,0.001645,-0.000439,0.336756,1.214060,2.647833,778.91,15.00,highres
79.013551,9860642885,0.633153,0.012874,-9.735185,0.000013,0.001657,0.000540,0.336756,1.214060,2.647833,778.91,15.00,highres
79.022078,9860646874,0.630702,0.018411,-9.737580,0.000209,0.001873,0.000259,0.336756,1.214060,2.647833,778.91,15.00,highres
79.034382,9860659896,0.636015,0.015351,-9.743639,0.000053,0.001320,-0.000537,0.336756,1.214060,2.647833,778.91,15.00,highres
79.037281,9860664598,0.639717,0.018553,-9.740291,0.000500,0.001548,-0.001610,0.336756,1.214060,2.647833,778.91,15.00,highres
79.047431,9860679790,0.624572,0.007339,-9.749551,-0.000254,0.001034,-0.000851,0.336756,1.214060,2.647833,778.91,15.00,highres
79.057226,9860689879,0.636900,0.020971,-9.746139,-0.000347,0.000603,-0.000944,0.336756,1.214060,2.647833,778.91,15.00,highres
79.065700,9860699814,0.635013,0.002564,-9.745350,0.000440,0.000960,-0.000388,0.336756,1.214060,2.647833,778.91,15.00,highres
79.080640,9860705059,0.625291,0.001603,-9.738441,-0.000707,0.000984,-0.000218,0.336756,1.214060,2.647833,778.91,15.00,highres
79.089175,9860715732,0.632473,-0.003812,-9.748289,-0.000402,0.000890,-0.000404,0.321269,1.196830,2.628219,778.91,15.00,highres
79.096424,9860729800,0.648035,0.008135,-9.746918,0.000367,0.001034,-0.000987,0.316794,1.190766,2.631360,778.91,15.00,highres
79.112289,9860742422,0.631276,0.010051,-9.748353,0.000071,0.002227,0.000638,0.316794,1.190766,2.631360,778.91,15.00,highres
79.120985,9860747991,0.632473,0.006460,-9.748353,-0.000096,0.001419,-0.000614,0.316794,1.190766,2.631360,778.91,15.00,highres
79.130541,9860757856,0.633754,0.001338,-9.756816,0.000351,0.001340,-0.000508,0.316794,1.190766,2.631360,778.91,15.00,highres
79.136991,9860771672,0.644444,-0.000902,-9.747335,0.000348,0.000470,-0.001212,0.316794,1.190766,2.631360,778.92,15.00,highres
79.148451,9860782243,0.635420,0.014349,-9.745315,0.000674,0.001776,0.000209,0.316794,1.190766,2.631360,778.92,15.00,highres
79.157511,9860788503,0.636669,0.008854,-9.743566,0.000342,0.002256,0.000396,0.316794,1.190766,2.631360,778.92,15.00,highres
79.168124,9860792925,0.646629,0.004066,-9.744287,0.000121,0.002168,-0.000300,0.316794,1.190766,2.631360,778.92,15.00,highres
79.180914,9860805354,0.629027,0.014940,-9.755839,-0.000105,0.000513,-0.000801,0.316794,1.190766,2.631360,778.92,15.00,highres
79.188877,9860815018,0.626350,0.004066,-9.741170,-0.000159,0.000974,-0.000388,0.316794,1.190766,2.631360,778.92,15.00,highres
79.195796,9860829832,0.622829,0.012069,-9.743872,-0.000198,0.000831,-0.000388,0.316794,1.190766,2.631360,778.92,15.00,highres
79.204791,9860835336,0.637211,0.014216,-9.748354,-0.000538,0.000456,-0.000999,0.316794,1.190766,2.631360,778.92,15.00,highres
79.216580,9860852483,0.626088,0.001910,-9.747478,0.000168,0.001625,0.000060,0.316794,1.190766,2.631360,778.92,15.00,highres
79.229487,9860860233,0.635933,0.020061,-9.737081,-0.000563,0.001645,-0.000854,0.321706,1.203786,2.634048,778.92,15.00,highres
79.236651,9860875258,0.632560,0.005241,-9.745687,-0.000700,-0.000699,-0.002014,0.310339,1.187344,2.619620,778.92,15.00,highres
79.247151,9860880555,0.638099,0.007148,-9.745958,-0.000448,0.001478,-0.000999,0.310339,1.187344,2.619620,778.92,15.00,highres
79.259817,9860889818,0.640560,-0.000137,-9.741145,0.000820,0.001034,-0.000313,0.310339,1.187344,2.619620,778.92,15.00,highres
79.264603,9860902420,0.637529,0.015304,-9.748944,0.000888,0.000474,0.000205,0.310339,1.187344,2.619620,778.92,15.00,highres
79.280959,9860910336,0.631018,0.014839,-9.756279,-0.000889,0.002017,-0.000074,0.310339,1.187344,2.619620,778.92,15.00,highres
79.289666,9860921863,0.640030,0.007253,-9.742381,-0.001225,0.000052,-0.001224,0.310339,1.187344,2.619620,778.91,15.00,highres
79.301277,9860928614,0.636169,0.008854,-9.750227,-0.000593,0.001179,-0.001319,0.310339,1.187344,2.619620,778.91,15.00,highres
79.304769,9860937922,0.633089,0.014736,-9.745342,-0.000277,0.000748,-0.000350,0.310339,1.187344,2.619620,778.91,15.00,highres
79.322558,9860942993,0.640912,0.016182,-9.746293,0.000209,0.001340,-0.000082,0.310339,1.187344,2.619620,778.91,15.00,highres
79.333009,9860951907,0.635336,0.012497,-9.749132,0.000247,0.001474,0.000051,0.310339,1.187344,2.619620,778.91,15.00,highres
79.342965,9860962959,0.627256,0.008854,-9.746387,-0.000096,-0.000222,0.000528,0.310339,1.187344,2.619620,778.91,15.00,highres
79.346453,9860970252,0.625847,0.012007,-9.741693,-0.000402,0.001368,-0.000707,0.310339,1.187344,2.619620,778.91,15.00,highres
79.356086,9860983359,0.630079,0.002610,-9.755892,0.000042,0.000618,0.000195,0.310339,1.187344,2.619620,778.91,15.00,highres
79.363941,9860995643,0.639544,0.010487,-9.745088,-0.000467,0.000151,0.000392,0.317701,1.205834,2.638886,778.91,15.00,highres
79.375019,9861005256,0.636982,0.005543,-9.746317,-0.000836,0.001468,-0.000565,0.323878,1.207161,2.629129,778.91,15.00,highres
79.375019,9861013890,0.636437,0.010503,-9.740798,-0.000340,0.001731,0.000028,0.323878,1.207161,2.629129,778.91,15.00,highres
79.375019,9861023349,0.636628,0.008115,-9.749640,-0.000402,0.001541,-0.000798,0.323878,1.207161,2.629129,778.91,15.00,highres
79.415724,9861037640,0.626488,0.012445,-9.749549,-0.000502,0.000864,-0.000558,0.323878,1.207161,2.629129,778.91,15.00,highres
79.421798,9861048806,0.634534,0.003967,-9.749268,-0.000096,0.000729,-0.001178,0.323878,1.207161,2.629129,778.91,15.00,highres
79.429957,9861061097,0.634542,0.010270,-9.750094,0.001431,0.001807,-0.000531,0.323878,1.207161,2.629129,778.91,15.00,highres
79.436313,9861065698,0.631129,0.014095,-9.754940,-0.000898,0.000118,-0.000617,0.323878,1.207161,2.629129,778.91,15.00,highres
79.451711,9861077738,0.637262,0.012200,-9.747632,-0.000402,0.002149,0.001002,0.323878,1.207161,2.629129,778.91,15.00,highres
79.457570,9861090548,0.629580,0.015037,-9.743366,0.000514,0.002186,-0.000764,0.323878,1.207161,2.629129,778.91,15.00,highres
79.464802,9861100177,0.640265,0.011248,-9.750168,0.000015,0.000923,0.001417,0.323878,1.207161,2.629129,778.91,15.00,highres
79.481168,9861112248,0.632500,0.010225,-9.738004,-0.000400,0.001397,-0.000276,0.323878,1.207161,2.629129,778.91,15.00,highres
79.489622,9861123227,0.632660,0.001998,-9.745348,0.000323,0.000604,-0.000297,0.323878,1.207161,2.629129,778.91,15.00,highres
79.496850,9861128984,0.641563,0.008291,-9.752369,0.000036,-0.000040,-0.000539,0.323878,1.207161,2.629129,778.91,15.00,highres
79.504222,9861140163,0.629536,0.008688,-9.746441,-0.000705,0.000411,-0.001138,0.319100,1.205831,2.635448,778.91,15.00,highres
79.521607,9861145775,0.632168,0.019584,-9.743608,0.000659,0.001184,0.000054,0.316879,1.194132,2.617121,778.91,15.00,highres
79.529688,9861160519,0.631146,0.015002,-9.741595,-0.000094,0.000411,-0.000604,0.316879,1.194132,2.617121,778.91,15.00,highres
79.537833,9861170264,0.635465,0.002469,-9.747801,0.000079,0.000056,-0.001310,0.316879,1.194132,2.617121,778.92,15.00,highres
79.546757,9861182445,0.632966,0.013006,-9.757800,0.000517,0.001287,0.000217,0.316879,1.194132,2.617121,778.92,15.00,highres
79.557480,9861189494,0.638961,0.014288,-9.743827,0.000496,0.000574,-0.000088,0.316879,1.194132,2.617121,778.92,15.00,highres
79.564335,9861198093,0.637288,0.009565,-9.744112,-0.000568,0.001464,-0.000120,0.316879,1.194132,2.617121,778.92,15.00,highres
79.583025,9861209211,0.631302,0.011255,-9.748905,0.000517,0.001221,0.000049,0.316879,1.194132,2.617121,778.92,15.00,highres
79.589614,9861223662,0.633772,0.012028,-9.749551,-0.001119,0.000391,-0.000177,0.316879,1.194132,2.617121,778.92,15.00,highres
79.595723,9861229123,0.639949,0.005763,-9.752369,-0.001150,0.000463,0.000217,0.316879,1.194132,2.617121,778.92,15.00,highres
79.613363,9861238879,0.629734,0.008324,-9.747869,-0.000642,0.001222,-0.000426,0.316879,1.194132,2.617121,778.92,15.00,highres
79.623952,9861249088,0.639000,0.007136,-9.747066,0.000037,0.001416,-0.000916,0.316879,1.194132,2.617121,778.91,15.00,highres
79.629852,9861261285,0.628738,0.011340,-9.751771,-0.000509,0.000825,-0.001027,0.316879,1.194132,2.617121,778.91,15.00,highres
79.637020,9861265938,0.636091,0.013405,-9.753669,0.000517,0.000716,-0.000394,0.316879,1.194132,2.617121,778.91,15.00,highres
79.648912,9861278212,0.623530,0.016043,-9.747581,0.000517,0.001327,0.000217,0.319415,1.200671,2.637159,778.91,15.00,highres
79.657601,9861283218,0.632118,0.006033,-9.750119,0.000064,0.001169,0.000986,0.330195,1.207308,2.647148,778.91,15.00,highres
79.671490,9861296803,0.630039,0.006014,-9.750234,-0.000094,0.000397,-0.000075,0.330195,1.207308,2.647148,778.91,15.00,highres
79.681812,9861308356,0.643057,0.012016,-9.747036,-0.000435,0.000070,0.000864,0.330195,1.207308,2.647148,778.91,15.00,highres
79.689867,9861315544,0.638710,0.012677,-9.739200,-0.000015,-0.000072,-0.000473,0.330195,1.207308,2.647148,778.91,15.00,highres
79.695460,9861326488,0.634950,0.010058,-9.754352,-0.000272,0.001987,0.000089,0.330195,1.207308,2.647148,778.92,15.00,highres
79.711812,9861331572,0.622736,0.013517,-9.747447,-0.000201,0.000551,-0.000790,0.330195,1.207308,2.647148,778.92,15.00,highres
79.722573,9861352815,0.638485,0.016331,-9.754211,-0.000582,0.000962,-0.000759,0.330195,1.207308,2.647148,778.92,15.00,highres
79.729987,9861358845,0.628656,0.014121,-9.746131,-0.000236,0.001696,-0.000231,0.330195,1.207308,2.647148,778.92,15.00,highres
79.738712,9861369938,0.635442,0.011803,-9.745186,-0.001338,-0.000342,-0.000699,0.330195,1.207308,2.647148,778.92,15.00,highres
79.746335,9861379946,0.636596,0.015165,-9.747581,-0.000325,0.001057,0.000177,0.330195,1.207308,2.647148,778.92,15.00,highres
79.757497,9861390123,0.638903,0.007823,-9.746382,0.001062,0.000716,0.000151,0.330195,1.207308,2.647148,778.92,15.00,highres
79.764665,9861395591,0.626514,0.002254,-9.742791,-0.001022,0.001022,-0.000088,0.330195,1.207308,2.647148,778.92,15.00,highres
79.781311,9861411106,0.630105,0.014016,-9.744143,-0.000360,0.001859,0.000828,0.330195,1.207308,2.647148,778.92,15.00,highres
79.787692,9861420664,0.627711,0.016043,-9.742793,0.000517,0.001327,0.000217,0.324441,1.205496,2.637676,778.92,15.00,highres
79.795401,9861432738,0.637661,0.016043,-9.746685,-0.000038,0.001761,0.000281,0.318711,1.195497,2.645552,778.92,15.00,highres
79.813726,9861440740,0.637633,0.011449,-9.745649,-0.000636,0.000934,-0.000039,0.318711,1.195497,2.645552,778.92,15.00,highres
79.821669,9861446006,0.645796,0.014570,-9.752626,0.000348,0.000411,-0.000836,0.318711,1.195497,2.645552,778.92,15.00,highres
79.832644,9861456474,0.639927,0.005269,-9.749988,-0.000400,0.000109,-0.000453,0.318711,1.195497,2.645552,778.92,15.00,highres
79.836579,9861469459,0.637071,0.017513,-9.753348,-0.001283,0.000580,-0.001343,0.318711,1.195497,2.645552,778.92,15.00,highres
79.846697,9861478604,0.635295,0.015484,-9.749975,0.000231,0.001042,-0.000088,0.318711,1.195497,2.645552,778.92,15.00,highres
79.859174,9861486360,0.624342,0.010113,-9.746440,0.000000,0.000622,0.000406,0.318711,1.195497,2.645552,778.93,15.00,highres
79.864814,9861500710,0.626173,0.008285,-9.744657,-0.000864,0.000093,0.000657,0.318711,1.195497,2.645552,778.93,15.00,highres
79.882251,9861510754,0.633331,-0.001730,-9.746750,0.000908,-0.000004,-0.001091,0.318711,1.195497,2.645552,778.93,15.00,highres
79.889467,9861516209,0.642076,0.009651,-9.742292,-0.000274,0.000285,-0.000088,0.318711,1.195497,2.645552,778.93,15.00,highres
79.898973,9861525947,0.630823,0.003357,-9.760028,-0.000056,0.000621,0.000694,0.318711,1.195497,2.645552,778.93,15.00,highres
79.914661,9861536821,0.639211,0.013891,-9.744957,-0.000643,0.001389,0.000337,0.318711,1.195497,2.645552,778.93,15.00,highres
79.922215,9861550941,0.639288,0.005680,-9.753582,-0.000021,0.001065,-0.000932,0.318711,1.195497,2.645552,778.93,15.00,highres
79.929849,9861563440,0.631314,0.013992,-9.750485,-0.000923,0.000716,0.000392,0.324443,1.201859,2.633612,778.93,15.00,highres
79.936758,9861570730,0.625317,0.002875,-9.752369,-0.000400,-0.000200,-0.000171,0.334557,1.204543,2.631916,778.93,15.00,highres
79.947801,9861576409,0.633819,0.009320,-9.747243,0.000276,0.000352,-0.000758,0.334557,1.204543,2.631916,778.93,15.00,highres
79.958801,9861591325,0.635656,0.013487,-9.753130,0.000525,0.001938,-0.000493,0.334557,1.204543,2.631916,778.93,15.00,highres
79.963973,9861597186,0.631960,0.004309,-9.737347,0.000783,0.001327,-0.000699,0.334557,1.204543,2.631916,778.93,15.00,highres
79.982959,9861610081,0.645203,0.019439,-9.757890,0.000635,0.000155,-0.001379,0.334557,1.204543,2.631916,778.93,15.00,highres
79.989517,9861621479,0.630105,0.011639,-9.754378,-0.000302,0.001327,-0.000405,0.334557,1.204543,2.631916,778.93,15.00,highres
79.997082,9861629547,0.637724,0.008353,-9.756396,-0.001316,-0.000682,-0.001310,0.334557,1.204543,2.631916,778.93,15.00,highres
80.004792,9861633183,0.636108,0.013042,-9.749314,-0.000550,-0.000045,-0.000699,0.334557,1.204543,2.631916,778.93,15.00,highres
80.022242,9861643571,0.634894,0.019025,-9.749996,0.000211,0.001327,0.000217,0.334557,1.204543,2.631916,778.93,15.00,highres
80.031752,9861659128,0.637579,0.006175,-9.751916,0.000211,-0.000390,-0.000889,0.334557,1.204543,2.631916,778.93,15.00,highres
80.037259,9861670453,0.634264,0.008231,-9.756403,-0.000400,0.001022,0.000506,0.334557,1.204543,2.631916,778.93,15.00,highres
80.045803,9861675869,0.638112,0.014924,-9.749150,0.000517,-0.000553,-0.000136,0.334557,1.204543,2.631916,778.93,15.00,highres
80.057034,9861683330,0.638085,0.014051,-9.750372,0.000303,0.001235,0.000096,0.334557,1.204543,2.631916,778.93,15.00,highres
80.066117,9861700742,0.639507,0.016190,-9.748105,-0.001182,0.001066,0.000478,0.324208,1.201841,2.634021,778.93,15.00,highres
80.080934,9861705584,0.636464,0.014918,-9.752520,-0.000476,0.000844,0.000090,0.328365,1.202432,2.645694,778.93,15.00,highres
80.088978,9861715671,0.635840,0.009490,-9.748274,0.000957,0.000887,-0.001152,0.328365,1.202432,2.645694,778.93,15.00,highres
80.095824,9861726132,0.629389,0.013828,-9.741595,0.000620,0.000716,-0.000091,0.328365,1.202432,2.645694,778.92,15.00,highres
80.113539,9861739255,0.634894,0.010058,-9.739200,-0.000608,0.001340,0.000119,0.328365,1.202432,2.645694,778.92,15.00,highres
80.123535,9861751016,0.632714,0.015061,-9.757709,-0.000140,0.000586,-0.000783,0.328365,1.202432,2.645694,778.92,15.00,highres
80.131185,9861761096,0.632024,0.010515,-9.756910,0.000274,0.000905,0.000401,0.328365,1.202432,2.645694,778.92,15.00,highres
80.136972,9861772989,0.640461,0.010419,-9.749195,-0.000201,0.000212,-0.000196,0.328365,1.202432,2.645694,778.92,15.00,highres
80.155095,9861780834,0.635452,0.017717,-9.750774,0.000143,0.001140,0.000336,0.328365,1.202432,2.645694,778.92,15.00,highres
80.158489,9861791606,0.632002,0.008271,-9.748686,0.000568,0.000716,-0.000826,0.328365,1.202432,2.645694,778.92,15.00,highres
80.166181,9861797626,0.644580,0.002059,-9.750141,-0.000257,0.000248,-0.001086,0.328365,1.202432,2.645694,778.92,15.00,highres
80.180960,9861809561,0.624735,0.013023,-9.748161,-0.000075,0.000926,-0.000795,0.328365,1.202432,2.645694,778.93,15.00,highres
80.188773,9861819146,0.623680,0.012769,-9.743112,-0.001011,0.001447,0.000828,0.328365,1.202432,2.645694,778.93,15.00,highres
80.197499,9861827132,0.636592,0.009492,-9.750049,0.000307,0.001537,-0.000661,0.325208,1.207022,2.636064,778.93,15.00,highres
80.214497,9861840842,0.636011,0.008338,-9.756892,-0.000094,0.001022,-0.000232,0.325208,1.207022,2.636064,778.93,15.00,highres
80.221780,9861846102,0.637741,0.003503,-9.756530,-0.000705,0.000251,-0.001018,0.327017,1.208144,2.628609,778.93,15.00,highres
80.230654,9861859487,0.627664,0.019107,-9.758977,-0.000516,-0.000447,-0.001187,0.327017,1.208144,2.628609,778.93,15.00,highres
80.236417,9861873764,0.636757,0.007664,-9.754230,-0.000361,-0.000428,0.000484,0.327017,1.208144,2.628609,778.93,15.00,highres
80.255540,9861878392,0.638142,0.018263,-9.752887,0.000517,0.002243,-0.000394,0.327017,1.208144,2.628609,778.93,15.00,highres
80.258113,9861884345,0.639445,0.006233,-9.750453,0.000035,0.001762,-0.000218,0.327017,1.208144,2.628609,778.93,15.00,highres
80.263806,9861898943,0.626514,0.010058,-9.753568,0.000517,0.001186,0.000001,0.327017,1.208144,2.628609,778.93,15.00,highres
80.282167,9861908932,0.627697,0.021380,-9.744624,-0.000550,0.000419,0.000677,0.327017,1.208144,2.628609,778.93,15.00,highres
80.289143,9861918087,0.632500,0.020831,-9.757156,0.000822,0.000411,-0.000699,0.327017,1.208144,2.628609,778.93,15.00,highres
80.297222,9861930534,0.631779,0.014821,-9.740643,0.000338,0.000307,-0.001258,0.327017,1.208144,2.628609,778.93,15.00,highres
80.304840,9861938548,0.634195,0.004971,-9.749876,0.000421,0.000200,-0.000394,0.327017,1.208144,2.628609,778.93,15.00,highres
80.322255,9861950769,0.637841,0.017048,-9.748551,-0.000705,0.000592,-0.000336,0.327017,1.208144,2.628609,778.93,15.00,highres
80.329827,9861961014,0.636091,0.015500,-9.743444,-0.001080,0.001514,-0.000394,0.327017,1.208144,2.628609,778.93,15.00,highres
80.337113,9861969117,0.632856,0.016144,-9.746026,0.000211,0.000469,0.000126,0.323000,1.195621,2.633233,778.93,15.00,highres
80.346102,9861981023,0.627108,0.018239,-9.753567,0.000873,0.000894,-0.000445,0.323000,1.195621,2.633233,778.93,15.00,highres
80.358608,9861988848,0.640132,0.011255,-9.752369,0.000431,0.001117,0.000513,0.323257,1.209489,2.631720,778.93,15.00,highres
80.371405,9861999105,0.625317,0.010058,-9.734412,0.000684,0.000716,-0.000226,0.323257,1.209489,2.631720,778.93,15.00,highres
80.371405,9862009219,0.631064,0.014175,-9.751366,0.000211,0.000856,-0.000813,0.323257,1.209489,2.631720,778.93,15.00,highres
80.371405,9862019269,0.640376,0.020640,-9.744996,-0.000142,0.000234,-0.001181,0.323257,1.209489,2.631720,778.93,15.00,highres
80.371405,9862031918,0.634285,0.014237,-9.742798,-0.000196,0.000309,-0.000598,0.323257,1.209489,2.631720,778.93,15.00,highres
80.412616,9862037393,0.631083,0.015098,-9.743012,-0.001011,0.001206,-0.000941,0.323257,1.209489,2.631720,778.93,15.00,highres
80.421848,9862048892,0.630814,0.008372,-9.740618,-0.000705,0.001403,-0.000394,0.323257,1.209489,2.631720,778.92,15.00,highres
80.431650,9862059676,0.638485,0.011255,-9.752369,-0.000094,0.000411,-0.000394,0.323257,1.209489,2.631720,778.92,15.00,highres
80.436427,9862069324,0.638485,0.010058,-9.747581,0.000960,0.001189,-0.001201,0.323257,1.209489,2.631720,778.92,15.00,highres
80.446785,9862081132,0.628278,0.015601,-9.739579,-0.000825,0.000661,-0.000023,0.323257,1.209489,2.631720,778.92,15.00,highres
80.456640,9862092529,0.632537,0.013901,-9.733253,-0.000307,0.000645,-0.000841,0.323257,1.209489,2.631720,778.92,15.00,highres
80.463938,9862099071,0.633409,0.009507,-9.746024,-0.000558,0.000716,0.001043,0.323257,1.209489,2.631720,778.92,15.00,highres
80.481053,9862111136,0.623599,0.016616,-9.762517,0.000060,0.000260,-0.000861,0.327202,1.206237,2.633287,778.92,15.00,highres
80.489291,9862121968,0.643365,0.009392,-9.756204,-0.000705,-0.000426,0.000327,0.327202,1.206237,2.633287,778.93,15.00,highres
80.496080,9862131213,0.632821,0.000936,-9.744802,0.000059,0.000840,0.000217,0.326066,1.218451,2.629967,778.93,15.00,highres
80.511970,9862136960,0.629915,0.011997,-9.754323,0.000687,0.000722,-0.000493,0.326066,1.218451,2.629967,778.93,15.00,highres
80.521400,9862148892,0.636178,0.012512,-9.746849,-0.000094,0.000686,-0.000394,0.326066,1.218451,2.629967,778.93,15.00,highres
80.530117,9862153634,0.630500,0.011581,-9.748054,0.000386,0.001297,-0.000874,0.326066,1.218451,2.629967,778.93,15.00,highres
80.536201,9862164122,0.643233,0.012451,-9.738913,0.000517,-0.000536,-0.000394,0.326066,1.218451,2.629967,778.93,15.00,highres
80.545560,9862177364,0.638802,0.016006,-9.751527,0.000448,-0.000429,0.000690,0.326066,1.218451,2.629967,778.93,15.00,highres
80.556841,9862184240,0.626893,0.018196,-9.754355,-0.000094,0.000289,0.000613,0.326066,1.218451,2.629967,778.93,15.00,highres
80.566558,9862193485,0.627292,0.008859,-9.745336,-0.000094,0.001064,-0.000089,0.326066,1.218451,2.629967,778.93,15.00,highres
80.580908,9862209525,0.640839,0.007662,-9.748488,-0.000094,0.000381,-0.000089,0.326066,1.218451,2.629967,778.92,15.00,highres
80.589135,9862221667,0.630043,0.021982,-9.750906,-0.000544,0.001602,0.001139,0.326066,1.218451,2.629967,778.92,15.00,highres
80.595554,9862227661,0.632136,0.007113,-9.758938,-0.000075,0.000381,-0.000591,0.326066,1.218451,2.629967,778.92,15.00,highres
80.612143,9862231387,0.632054,0.006262,-9.745283,-0.000856,-0.000539,-0.000854,0.326066,1.218451,2.629967,778.92,15.00,highres
80.621130,9862248926,0.639642,0.010056,-9.748488,0.000211,0.000686,-0.000700,0.325405,1.202035,2.631188,778.92,15.00,highres
80.631578,9862260155,0.622883,0.016042,-9.744897,-0.000118,0.001485,-0.000747,0.325405,1.202035,2.631188,778.92,15.00,highres
80.635709,9862269512,0.630500,0.005813,-9.752732,-0.000705,0.000866,-0.000505,0.325071,1.199956,2.636617,778.92,15.00,highres
80.647165,9862279014,0.634000,0.006808,-9.742218,-0.000400,0.000075,-0.000700,0.325071,1.199956,2.636617,778.93,15.00,highres
80.657534,9862284618,0.633818,0.015881,-9.746791,-0.000784,0.000302,-0.000769,0.325071,1.199956,2.636617,778.93,15.00,highres
80.665758,9862294395,0.627965,0.008114,-9.752374,0.000517,0.002213,0.000522,0.325071,1.199956,2.636617,778.93,15.00,highres
80.681248,9862306882,0.635754,0.011374,-9.747829,-0.000190,0.001144,0.000427,0.325071,1.199956,2.636617,778.93,15.00,highres
80.687919,9862313946,0.642757,0.011893,-9.743782,-0.000680,0.001348,-0.000513,0.325071,1.199956,2.636617,778.93,15.00,highres
80.696855,9862328938,0.641517,0.010576,-9.738076,0.000038,0.000737,-0.000221,0.325071,1.199956,2.636617,778.93,15.00,highres
80.703890,9862342835,0.626026,0.013847,-9.748938,-0.000934,0.001678,0.000752,0.325071,1.199956,2.636617,778.93,15.00,highres
80.721154,9862348861,0.633831,0.011768,-9.748316,-0.000801,0.000123,-0.001167,0.325071,1.199956,2.636617,778.93,15.00,highres
80.735038,9862359333,0.628153,0.012685,-9.750886,-0.001072,0.001114,-0.000028,0.325071,1.199956,2.636617,778.93,15.00,highres
80.736169,9862370622,0.641317,0.006947,-9.760937,0.000884,0.000931,0.000277,0.325071,1.199956,2.636617,778.93,15.00,highres
80.746646,9862377179,0.637204,0.002548,-9.754474,-0.000102,0.000843,-0.000872,0.325071,1.199956,2.636617,778.93,15.00,highres
80.758063,9862387520,0.637248,0.002368,-9.755199,0.001128,0.001393,-0.000776,0.328227,1.206161,2.633368,778.93,15.00,highres
80.766157,9862399063,0.635020,0.014661,-9.746445,0.000211,0.000207,0.000480,0.328227,1.206161,2.633368,778.93,15.00,highres
80.782443,9862403889,0.635136,0.013298,-9.748488,-0.000512,0.001409,0.000771,0.320212,1.209225,2.639428,778.93,15.00,highres
80.788827,9862421672,0.639588,0.012185,-9.752718,-0.000495,0.000734,-0.000394,0.320212,1.209225,2.639428,778.93,15.00,highres
80.795707,9862431717,0.647237,0.006465,-9.745682,0.000291,0.000765,0.001182,0.320212,1.209225,2.639428,778.93,15.00,highres
80.813045,9862436411,0.630622,0.001762,-9.755755,-0.000245,0.001149,0.000362,0.320212,1.209225,2.639428,778.93,15.00,highres
80.821206,9862449868,0.634910,0.005694,-9.747918,0.000916,0.001297,-0.000845,0.320212,1.209225,2.639428,778.93,15.00,highres
80.831222,9862462487,0.617733,0.012835,-9.747313,0.000007,0.001193,-0.000293,0.320212,1.209225,2.639428,778.93,15.00,highres
80.838667,9862468417,0.633657,0.008669,-9.745523,-0.000400,0.000814,-0.000266,0.320212,1.209225,2.639428,778.93,15.00,highres
80.847433,9862478957,0.639295,0.008110,-9.756420,-0.001010,0.000075,0.000217,0.320212,1.209225,2.639428,778.93,15.00,highres
80.859687,9862489615,0.640491,0.008629,-9.742156,-0.000094,0.000381,-0.001005,0.320212,1.209225,2.639428,778.93,15.00,highres
80.874807,9862495682,0.634516,0.003624,-9.752045,0.000083,0.000172,-0.000474,0.320212,1.209225,2.639428,778.93,15.00,highres
80.882939,9862502405,0.619292,0.017670,-9.752296,-0.000094,0.000381,-0.000394,0.320212,1.209225,2.639428,778.93,15.00,highres
80.887916,9862512018,0.635140,0.016042,-9.753116,0.000361,0.001597,-0.000705,0.320212,1.209225,2.639428,778.93,15.00,highres
80.895864,9862524005,0.635062,0.003161,-9.754346,0.000820,0.001600,-0.001515,0.317862,1.204473,2.636210,778.93,15.00,highres
80.909640,9862531915,0.632085,0.007345,-9.742878,0.000231,0.000148,-0.000826,0.317862,1.204473,2.636210,778.93,15.00,highres
80.922492,9862542543,0.631778,0.008970,-9.750202,0.000521,0.000887,0.000317,0.321544,1.207924,2.620802,778.93,15.00,highres
80.931318,9862553966,0.634854,0.000480,-9.744898,0.000323,0.000927,-0.000394,0.321544,1.207924,2.620802,778.93,15.00,highres
80.937225,9862560333,0.638893,0.013942,-9.741455,0.000517,0.000991,-0.001005,0.321544,1.207924,2.620802,778.93,15.00,highres
80.946185,9862574001,0.630830,0.008075,-9.737283,-0.000299,-0.000434,-0.000089,0.321544,1.207924,2.620802,778.93,15.00,highres
80.957959,9862584129,0.633657,0.012451,-9.750883,0.000244,0.001367,0.000353,0.321544,1.207924,2.620802,778.93,15.00,highres
80.963752,9862597282,0.633960,0.006018,-9.749541,0.000517,0.000686,-0.001616,0.321544,1.207924,2.620802,778.92,15.00,highres
80.981874,9862602560,0.643910,0.010508,-9.749234,0.000103,0.000488,-0.000700,0.321544,1.207924,2.620802,778.92,15.00,highres
80.988096,9862613396,0.634344,0.013648,-9.754415,-0.000094,-0.000230,0.000217,0.321544,1.207924,2.620802,778.92,15.00,highres
80.997980,9862624172,0.640839,0.005268,-9.750882,0.000647,0.000861,-0.001222,0.321544,1.207924,2.620802,778.92,15.00,highres
81.014109,9862634767,0.640893,0.013648,-9.753304,0.000338,0.000635,0.000268,0.321544,1.207924,2.620802,778.92,15.00,highres
81.022250,9862645441,0.636051,0.013648,-9.746094,-0.000556,0.000530,-0.000401,0.321544,1.207924,2.620802,778.92,15.00,highres
81.031149,9862658361,0.629572,0.008717,-9.740746,-0.000600,-0.000632,0.000217,0.321544,1.207924,2.620802,778.92,15.00,highres
81.042783,9862669548,0.628974,0.006985,-9.740215,0.001757,0.000543,-0.000986,0.321776,1.196896,2.632037,778.92,15.00,highres
81.047915,9862674368,0.635360,0.012500,-9.752266,0.000240,-0.000594,-0.000867,0.321776,1.196896,2.632037,778.91,15.00,highres
81.057592,9862687454,0.636232,0.004726,-9.749408,-0.000094,0.000446,-0.000336,0.317575,1.191676,2.625674,778.91,15.00,highres
81.064435,9862699388,0.639642,0.019633,-9.746095,-0.000094,-0.000230,-0.000394,0.317575,1.191676,2.625674,778.91,15.00,highres
81.081072,9862704963,0.639708,0.019386,-9.746915,0.000211,-0.000134,0.000426,0.317575,1.191676,2.625674,778.91,15.00,highres
81.090965,9862716786,0.631339,-0.003486,-9.748787,-0.000132,0.000686,-0.001444,0.317575,1.191676,2.625674,778.91,15.00,highres
81.096556,9862729701,0.632460,0.010669,-9.742447,-0.000250,-0.000514,-0.000231,0.317575,1.191676,2.625674,778.91,15.00,highres
81.113969,9862741859,0.639642,0.014644,-9.746978,0.000102,-0.000645,0.001024,0.317575,1.191676,2.625674,778.91,15.00,highres
81.122001,9862752243,0.635475,0.014935,-9.749823,-0.000999,0.001173,0.000364,0.317575,1.191676,2.625674,778.91,15.00,highres
81.130911,9862757104,0.625542,0.016352,-9.742860,-0.000919,-0.000444,0.000070,0.317575,1.191676,2.625674,778.91,15.00,highres
81.140786,9862769935,0.630066,0.011253,-9.749686,-0.000705,0.000075,-0.000700,0.317575,1.191676,2.625674,778.91,15.00,highres
81.147512,9862779618,0.632297,0.008697,-9.739470,0.000662,-0.000245,0.000667,0.317575,1.191676,2.625674,778.91,15.00,highres
81.157627,9862789253,0.637374,0.007600,-9.744897,0.000211,-0.000841,-0.000700,0.317575,1.191676,2.625674,778.91,15.00,highres
81.164570,9862794243,0.642397,0.016436,-9.744570,0.000048,-0.000188,-0.000558,0.317575,1.191676,2.625674,778.91,15.00,highres
81.181161,9862809806,0.636498,0.011253,-9.750214,0.000065,0.001443,-0.000991,0.328875,1.204080,2.632509,778.91,15.00,highres
81.189079,9862814437,0.634854,0.016942,-9.751781,-0.000400,0.001297,-0.001005,0.328875,1.204080,2.632509,778.91,15.00,highres
81.195609,9862827361,0.636051,0.002282,-9.746700,0.000535,-0.000436,0.000030,0.327885,1.208908,2.635659,778.91,15.00,highres
81.212884,9862839963,0.640571,0.016838,-9.735987,-0.000485,0.001077,0.000107,0.327885,1.208908,2.635659,778.92,15.00,highres
81.221617,9862845068,0.627054,0.016079,-9.743737,-0.000363,0.001090,0.000450,0.327885,1.208908,2.635659,778.92,15.00,highres
81.230433,9862857123,0.630793,0.017153,-9.755672,-0.000221,0.001222,-0.000014,0.327885,1.208908,2.635659,778.92,15.00,highres
81.236978,9862862004,0.638447,0.016520,-9.746333,-0.000839,0.000381,-0.000014,0.327885,1.208908,2.635659,778.92,15.00,highres
81.255130,9862882521,0.630586,0.011566,-9.746877,-0.000293,0.000088,0.000110,0.327885,1.208908,2.635659,778.92,15.00,highres
81.259042,9862888075,0.624860,0.014724,-9.747291,-0.000705,0.000823,0.000629,0.327885,1.208908,2.635659,778.92,15.00,highres
81.264630,9862900367,0.637232,0.007654,-9.753269,-0.000258,0.000172,-0.000394,0.327885,1.208908,2.635659,778.92,15.00,highres
81.282973,9862909428,0.628869,0.010056,-9.756868,0.000822,-0.000230,-0.001005,0.327885,1.208908,2.635659,778.92,15.00,highres
81.292681,9862920257,0.628811,0.008917,-9.751453,-0.000456,0.000260,-0.000330,0.327885,1.208908,2.635659,778.92,15.00,highres
81.295205,9862932449,0.632460,0.008859,-9.749686,-0.000094,-0.000230,0.000522,0.327885,1.208908,2.635659,778.92,15.00,highres
81.312810,9862936684,0.630066,0.006688,-9.749200,-0.000275,-0.000706,0.000760,0.327885,1.208908,2.635659,778.92,15.00,highres
81.321445,9862941588,0.633632,0.008020,-9.750858,-0.000705,0.001908,-0.000089,0.323915,1.203162,2.629901,778.92,15.00,highres
81.330784,9862956518,0.633060,0.011842,-9.753874,-0.000400,0.000818,-0.000262,0.323915,1.203162,2.629901,778.92,15.00,highres
81.336134,9862962221,0.644559,0.007000,-9.745966,-0.000528,0.000785,-0.001665,0.332781,1.199576,2.638422,778.92,15.00,highres
81.355056,9862971668,0.629649,0.015988,-9.749686,-0.000869,0.000075,-0.000582,0.332781,1.199576,2.638422,778.92,15.00,highres
81.357580,9862984557,0.632346,0.016924,-9.746850,-0.000476,0.000495,-0.001044,0.332781,1.199576,2.638422,778.92,15.00,highres
81.364622,9862992108,0.636717,0.011919,-9.747554,-0.000483,0.001519,0.000217,0.332781,1.199576,2.638422,778.92,15.00,highres
81.376994,9863003821,0.634552,0.013334,-9.731438,-0.000785,0.000832,0.000522,0.332781,1.199576,2.638422,778.92,15.00,highres
81.376994,9863014534,0.624415,0.012184,-9.757533,-0.000212,0.000686,-0.000370,0.332781,1.199576,2.638422,778.92,15.00,highres
81.376994,9863025435,0.634051,0.007768,-9.746289,0.000211,-0.000029,-0.001542,0.332781,1.199576,2.638422,778.92,15.00,highres
81.376994,9863032856,0.630135,0.002805,-9.746164,-0.000349,-0.000485,-0.000421,0.332781,1.199576,2.638422,778.92,15.00,highres
81.422479,9863044867,0.637806,0.008859,-9.744898,-0.000491,-0.000566,-0.001005,0.332781,1.199576,2.638422,778.92,15.00,highres
81.429925,9863050444,0.637860,0.005862,-9.752684,0.000069,0.000481,-0.000842,0.332781,1.199576,2.638422,778.92,15.00,highres
81.447170,9863067538,0.636051,0.009265,-9.748103,0.000211,-0.000911,-0.001193,0.332781,1.199576,2.638422,778.92,15.00,highres
81.448163,9863075245,0.631531,0.010618,-9.744410,0.000386,-0.000100,-0.000962,0.332781,1.199576,2.638422,778.92,15.00,highres
81.460494,9863084778,0.632228,0.014439,-9.739318,-0.000400,0.000075,-0.000394,0.322975,1.209077,2.631489,778.91,15.00,highres
81.465740,9863094707,0.632258,-0.000944,-9.746434,0.000112,-0.000131,-0.000600,0.322975,1.209077,2.631489,778.91,15.00,highres
81.480858,9863099808,0.631110,0.012901,-9.737266,-0.000931,0.001941,0.001133,0.322787,1.201511,2.629108,778.91,15.00,highres
81.495228,9863115108,0.621532,0.015354,-9.749686,-0.000705,-0.000026,-0.000599,0.322787,1.201511,2.629108,778.91,15.00,highres
81.500523,9863119782,0.627748,0.009503,-9.749917,-0.000373,0.000653,0.000557,0.322787,1.201511,2.629108,778.91,15.00,highres
81.513501,9863132348,0.642418,0.012146,-9.747710,-0.000518,0.001454,0.000107,0.322787,1.201511,2.629108,778.91,15.00,highres
81.523549,9863145447,0.630032,0.002864,-9.747954,-0.000013,-0.000980,-0.002053,0.322787,1.201511,2.629108,778.91,15.00,highres
81.535178,9863156985,0.635609,0.011243,-9.755518,0.000281,0.000666,-0.000462,0.322787,1.201511,2.629108,778.92,15.00,highres
81.542158,9863167248,0.628457,0.005979,-9.747380,-0.000403,0.000958,-0.000084,0.322787,1.201511,2.629108,778.92,15.00,highres
81.547428,9863172269,0.626440,0.006455,-9.743166,0.000354,0.000812,-0.000523,0.322787,1.201511,2.629108,778.92,15.00,highres
81.559103,9863184643,0.634820,0.005552,-9.739575,0.000097,0.000516,-0.000279,0.322787,1.201511,2.629108,778.92,15.00,highres
81.566156,9863194955,0.636334,0.000030,-9.747074,-0.000708,0.000653,-0.001305,0.322787,1.201511,2.629108,778.92,15.00,highres
81.583054,9863199817,0.629518,0.007822,-9.746415,-0.000272,0.000522,0.000222,0.322787,1.201511,2.629108,778.92,15.00,highres
81.588951,9863206638,0.637687,0.000785,-9.745372,0.000036,0.001092,0.000088,0.322787,1.201511,2.629108,778.92,15.00,highres
81.596653,9863218828,0.640145,0.008086,-9.740546,0.000819,0.000958,0.000222,0.313313,1.210611,2.635258,778.92,15.00,highres
81.613333,9863230383,0.635936,0.009275,-9.741623,0.000345,0.001180,0.000917,0.313313,1.210611,2.635258,778.91,15.00,highres
81.621637,9863239641,0.633776,0.016185,-9.748851,0.000834,0.000783,-0.000581,0.318377,1.204358,2.637177,778.91,15.00,highres
81.630773,9863245097,0.637255,0.012226,-9.751034,0.000589,-0.000569,-0.001381,0.318377,1.204358,2.637177,778.91,15.00,highres
81.638051,9863257378,0.628829,0.006460,-9.753956,-0.000097,0.001569,-0.000389,0.318377,1.204358,2.637177,778.91,15.00,highres
81.646798,9863267989,0.639608,0.001766,-9.739474,0.000519,0.000187,-0.001155,0.318377,1.204358,2.637177,778.91,15.00,highres
81.664190,9863280571,0.635194,0.009728,-9.745934,-0.000708,0.000042,-0.000270,0.318377,1.204358,2.637177,778.91,15.00,highres
81.665801,9863290242,0.635216,0.002864,-9.742615,-0.000492,0.000870,-0.000687,0.318377,1.204358,2.637177,778.91,15.00,highres
81.681622,9863295364,0.633305,0.014895,-9.748773,0.000208,0.000709,-0.001185,0.318377,1.204358,2.637177,778.91,15.00,highres
81.687925,9863310087,0.644785,0.005287,-9.738438,-0.000373,-0.000155,-0.000665,0.318377,1.204358,2.637177,778.92,15.00,highres
81.695646,9863322445,0.634820,0.008849,-9.752744,0.000208,0.000787,0.001004,0.318377,1.204358,2.637177,778.92,15.00,highres
81.713574,9863332880,0.638510,0.018876,-9.735184,0.000664,0.000507,-0.000544,0.318377,1.204358,2.637177,778.92,15.00,highres
81.721348,9863342520,0.637167,0.009330,-9.749962,0.000083,0.000111,-0.000209,0.318377,1.204358,2.637177,778.92,15.00,highres
81.730736,9863349487,0.630032,0.012440,-9.740772,0.000369,-0.000229,-0.000049,0.318377,1.204358,2.637177,778.92,15.00,highres
81.741449,9863363167,0.635508,0.009537,-9.748643,0.000317,-0.000242,0.000004,0.324261,1.199679,2.633694,778.92,15.00,highres
81.746892,9863373756,0.642320,0.011622,-9.743985,-0.000403,-0.000263,-0.000389,0.324261,1.199679,2.633694,778.92,15.00,highres
81.757859,9863380906,0.635194,0.021699,-9.743539,-0.000209,-0.000777,-0.001097,0.330855,1.193108,2.636126,778.92,15.00,highres
81.764726,9863393402,0.644000,0.013250,-9.736372,0.000402,0.000958,-0.001000,0.330855,1.193108,2.636126,778.92,15.00,highres
81.780643,9863405800,0.637014,0.013139,-9.757832,-0.000526,0.001387,-0.000389,0.330855,1.193108,2.636126,778.92,15.00,highres
81.789947,9863410225,0.632793,0.012256,-9.743166,-0.000097,0.000348,-0.000695,0.330855,1.193108,2.636126,778.92,15.00,highres
81.797716,9863423024,0.628300,0.005793,-9.749558,-0.000190,0.001329,-0.001398,0.330855,1.193108,2.636126,778.92,15.00,highres
81.813690,9863435431,0.634588,0.017375,-9.740248,-0.000097,0.000042,-0.001000,0.330855,1.193108,2.636126,778.92,15.00,highres
81.823576,9863445508,0.625243,0.006455,-9.743168,-0.000097,0.001264,-0.000695,0.330855,1.193108,2.636126,778.92,15.00,highres
81.831886,9863455489,0.637214,0.007652,-9.752742,-0.000382,0.000674,-0.000247,0.330855,1.193108,2.636126,778.92,15.00,highres
81.837051,9863465741,0.636017,0.008849,-9.743166,-0.000097,0.001574,-0.000234,0.330855,1.193108,2.636126,778.92,15.00,highres
81.847208,9863475925,0.629753,0.020082,-9.734147,-0.000097,0.000348,-0.000407,0.330855,1.193108,2.636126,778.92,15.00,highres
81.857364,9863480197,0.628835,0.014834,-9.745561,-0.000637,0.000770,-0.000954,0.330855,1.193108,2.636126,778.92,15.00,highres
81.865614,9863492979,0.636823,0.003890,-9.743973,-0.000097,0.000533,-0.001000,0.330855,1.193108,2.636126,778.92,15.00,highres
81.881123,9863505546,0.634820,0.011243,-9.741969,-0.001319,0.000131,-0.000281,0.327000,1.207442,2.631642,778.92,15.00,highres
81.889102,9863515578,0.631507,0.013359,-9.749889,0.000208,0.001031,-0.000587,0.327000,1.207442,2.631642,778.92,15.00,highres
81.896373,9863520276,0.632981,0.015215,-9.743983,0.000038,0.000924,-0.000219,0.319152,1.190840,2.636525,778.92,15.00,highres
81.912826,9863533107,0.634216,0.017813,-9.745542,0.000643,0.001218,-0.001305,0.319152,1.190840,2.636525,778.92,15.00,highres
81.921890,9863546035,0.626867,0.007652,-9.745823,0.000080,0.000446,-0.000261,0.319152,1.190840,2.636525,778.92,15.00,highres
81.930201,9863553282,0.641243,0.009287,-9.753310,-0.000214,0.000958,-0.000201,0.319152,1.190840,2.636525,778.92,15.00,highres
81.935799,9863562946,0.637214,0.005437,-9.743674,0.000091,0.001381,-0.000389,0.319152,1.190840,2.636525,778.93,15.00,highres
81.948889,9863573381,0.628835,0.011680,-9.753180,0.000208,-0.000263,-0.001305,0.319152,1.190840,2.636525,778.93,15.00,highres
81.956446,9863582598,0.631144,0.009237,-9.741497,-0.000026,0.000779,0.000456,0.319152,1.190840,2.636525,778.93,15.00,highres
81.964820,9863595626,0.639573,0.008919,-9.744432,0.000603,0.001003,-0.000389,0.319152,1.190840,2.636525,778.93,15.00,highres
81.982439,9863600567,0.640574,0.013616,-9.742894,0.000678,-0.000255,-0.000389,0.319152,1.190840,2.636525,778.93,15.00,highres
81.988936,9863613935,0.627581,0.007880,-9.742653,-0.000281,0.000652,-0.001061,0.319152,1.190840,2.636525,778.93,15.00,highres
81.995917,9863626772,0.636241,0.020146,-9.741596,-0.000708,0.000970,-0.000389,0.319152,1.190840,2.636525,778.93,15.00,highres
82.013615,9863637586,0.640953,0.006795,-9.745900,-0.000502,0.001577,0.001245,0.319152,1.190840,2.636525,778.93,15.00,highres
82.022339,9863642906,0.641807,0.001667,-9.740438,0.000542,0.001292,0.001443,0.319796,1.200211,2.634641,778.93,15.00,highres
82.036498,9863653032,0.628295,0.007837,-9.753636,0.000182,0.001238,0.000082,0.319796,1.200211,2.634641,778.93,15.00,highres
82.037610,9863660939,0.628232,0.014834,-9.741978,0.000074,0.001093,-0.000389,0.329422,1.197210,2.619792,778.93,15.00,highres
82.045946,9863673266,0.635664,0.008462,-9.747954,0.000819,0.000430,-0.000332,0.329422,1.197210,2.619792,778.93,15.00,highres
82.057865,9863683274,0.630032,0.014834,-9.743166,-0.000708,-0.000578,-0.000991,0.329422,1.197210,2.619792,778.93,15.00,highres
82.073519,9863692798,0.642659,0.016180,-9.750021,-0.000579,0.000688,-0.000178,0.329422,1.197210,2.619792,778.93,15.00,highres
82.082064,9863706146,0.628834,0.013637,-9.745561,-0.001168,0.000660,-0.000540,0.329422,1.197210,2.619792,778.93,15.00,highres
82.089181,9863711597,0.628552,0.011526,-9.754949,0.000819,0.000958,-0.000084,0.329422,1.197210,2.619792,778.93,15.00,highres
82.096582,9863720850,0.635447,0.017285,-9.748525,-0.000176,0.000426,0.000108,0.329422,1.197210,2.619792,778.93,15.00,highres
82.112837,9863732848,0.629547,0.011243,-9.747483,-0.000403,-0.000728,0.000395,0.329422,1.197210,2.619792,778.93,15.00,highres
82.121874,9863743629,0.632388,0.006068,-9.747993,0.000403,0.001514,-0.000389,0.329422,1.197210,2.619792,778.93,15.00,highres
82.132922,9863755901,0.637214,0.006455,-9.756333,-0.000097,0.000958,-0.000259,0.329422,1.197210,2.619792,778.93,15.00,highres
82.136236,9863766003,0.643199,0.012440,-9.752744,-0.002162,-0.000569,-0.000243,0.329422,1.197210,2.619792,778.93,15.00,highres
82.146640,9863780281,0.636017,0.012440,-9.750348,0.000371,0.001030,-0.000740,0.329422,1.197210,2.619792,778.93,15.00,highres
82.160455,9863789318,0.633461,0.016892,-9.746072,-0.000708,-0.000127,-0.000124,0.322527,1.200770,2.634310,778.93,15.00,highres
82.164468,9863798197,0.627384,0.006371,-9.746370,-0.001014,0.000042,-0.000695,0.322527,1.200770,2.634310,778.93,15.00,highres
82.181226,9863809856,0.632305,0.007531,-9.747888,0.000345,0.000118,-0.001168,0.317166,1.210716,2.633647,778.92,15.00,highres
82.188766,9863815873,0.634301,0.013970,-9.746918,0.000469,0.001787,-0.000216,0.317166,1.210716,2.633647,778.92,15.00,highres
82.199778,9863826350,0.633720,0.015634,-9.751547,-0.000097,0.000804,0.000527,0.317166,1.210716,2.633647,778.92,15.00,highres
82.213665,9863837990,0.633914,0.008470,-9.752742,-0.000850,0.001055,0.000855,0.317166,1.210716,2.633647,778.92,15.00,highres
82.222079,9863848633,0.639894,0.007751,-9.755038,0.000489,0.000653,0.000222,0.317166,1.210716,2.633647,778.92,15.00,highres
82.231030,9863860560,0.634748,0.020062,-9.747127,0.000015,0.000653,-0.000245,0.317166,1.210716,2.633647,778.92,15.00,highres
82.243981,9863867084,0.631991,0.008860,-9.744341,-0.000097,0.000348,-0.001305,0.317166,1.210716,2.633647,778.92,15.00,highres
82.247440,9863879031,0.637214,0.006290,-9.755468,-0.000708,0.000657,0.000376,0.317166,1.210716,2.633647,778.92,15.00,highres
82.257921,9863885942,0.636017,0.014834,-9.749152,-0.000708,-0.000313,-0.000304,0.317166,1.210716,2.633647,778.92,15.00,highres
82.264482,9863900805,0.634030,0.021083,-9.738114,0.000649,0.002053,-0.000254,0.317166,1.210716,2.633647,778.92,15.00,highres
82.280939,9863909661,0.631835,0.014818,-9.743773,-0.000659,0.000873,-0.001611,0.317166,1.210716,2.633647,778.92,15.00,highres
82.291086,9863924148,0.637768,0.008674,-9.751458,-0.000544,0.002299,0.000341,0.317166,1.210716,2.633647,778.92,15.00,highres
82.296560,9863928631,0.642468,0.005491,-9.755604,-0.000403,0.000485,-0.000863,0.321843,1.202474,2.633167,778.92,15.00,highres
82.314210,9863941016,0.633623,0.018426,-9.741970,0.001124,0.001875,-0.000695,0.321843,1.202474,2.633167,778.92,15.00,highres
82.324072,9863946970,0.638402,0.013655,-9.738791,-0.000706,0.002080,0.000219,0.321770,1.209298,2.640748,778.92,15.00,highres
82.332292,9863958186,0.634172,0.009947,-9.742868,0.000539,0.000539,-0.001000,0.321770,1.209298,2.640748,778.92,15.00,highres
82.335983,9863970810,0.639608,0.014234,-9.747950,0.000062,-0.000117,-0.001133,0.321770,1.209298,2.640748,778.92,15.00,highres
82.350221,9863982851,0.627014,0.015441,-9.742559,-0.000708,0.002022,-0.000345,0.321770,1.209298,2.640748,778.92,15.00,highres
82.356901,9863989219,0.633237,0.004082,-9.742097,0.000272,0.001875,0.000600,0.321770,1.209298,2.640748,778.92,15.00,highres
82.363608,9863995708,0.628905,0.007794,-9.756967,0.000462,0.001264,0.000262,0.321770,1.209298,2.640748,778.92,15.00,highres
82.376773,9864010106,0.635186,0.008849,-9.730884,0.001344,0.000784,-0.000738,0.321770,1.209298,2.640748,778.92,15.00,highres
82.376773,9864013560,0.621237,0.006137,-9.741969,-0.002073,0.000510,-0.000776,0.321770,1.209298,2.640748,778.92,15.00,highres
82.376773,9864026353,0.627374,0.006667,-9.757531,0.000761,0.000958,0.000222,0.321770,1.209298,2.640748,778.92,15.00,highres
82.376773,9864036953,0.627974,0.013282,-9.740783,0.000165,0.000958,0.000091,0.321770,1.209298,2.640748,778.92,15.00,highres
82.423945,9864049259,0.599159,0.015335,-9.752627,0.002873,-0.002424,0.000726,0.321770,1.209298,2.640748,778.92,15.00,highres
82.430701,9864060725,0.669468,0.099043,-9.764496,0.000462,0.002434,0.000501,0.321770,1.209298,2.640748,778.92,15.00,highres
82.436312,9864069377,0.612262,0.003222,-9.696702,-0.001372,0.001821,-0.001845,0.325239,1.207554,2.636211,778.92,15.00,highres
82.447829,9864081565,0.609474,0.019811,-9.770988,0.000348,0.004163,0.000297,0.325239,1.207554,2.636211,778.92,15.00,highres
82.458302,9864086962,0.599562,-0.027778,-9.681291,-0.001500,0.001775,0.000041,0.322506,1.197599,2.621036,778.92,15.00,highres
82.467068,9864100932,0.594983,0.018743,-9.721718,0.002655,-0.002317,0.000092,0.322506,1.197599,2.621036,778.92,15.00,highres
82.480616,9864108799,0.610879,0.013637,-9.781474,0.001061,0.000973,-0.000716,0.322506,1.197599,2.621036,778.92,15.00,highres
82.489327,9864119489,0.673654,-0.001625,-9.661345,-0.000111,0.000847,-0.001305,0.322506,1.197599,2.621036,778.93,15.00,highres
82.496759,9864131288,0.596887,0.013089,-9.819347,0.001975,0.000011,-0.000059,0.322506,1.197599,2.621036,778.93,15.00,highres
82.513514,9864140911,0.684284,0.018848,-9.722169,-0.003146,0.001538,-0.000383,0.322506,1.197599,2.621036,778.93,15.00,highres
82.521657,9864149194,0.608496,0.008849,-9.751532,0.001791,-0.001227,-0.000638,0.322506,1.197599,2.621036,778.93,15.00,highres
82.531245,9864159119,0.643477,0.020613,-9.762038,-0.000659,0.001321,-0.000775,0.322506,1.197599,2.621036,778.93,15.00,highres
82.536684,9864168989,0.651686,0.010898,-9.721559,0.000020,0.001370,0.000839,0.322506,1.197599,2.621036,778.93,15.00,highres
82.552915,9864180172,0.617453,0.016960,-9.765821,-0.001008,0.000208,-0.001299,0.322506,1.197599,2.621036,778.93,15.00,highres
82.557077,9864190705,0.644547,0.012537,-9.732477,0.000602,0.000219,-0.000174,0.322506,1.197599,2.621036,778.93,15.00,highres
82.565268,9864202046,0.630849,0.005649,-9.750359,-0.000715,0.000615,-0.000582,0.322506,1.197599,2.621036,778.93,15.00,highres
82.581179,9864207174,0.636799,0.013130,-9.751186,-0.000546,-0.000424,-0.000165,0.320456,1.205181,2.633782,778.93,15.00,highres
82.588806,9864223396,0.634933,0.008645,-9.751976,-0.000275,0.000744,0.000045,0.320456,1.205181,2.633782,778.93,15.00,highres
82.596646,9864229771,0.625255,0.013637,-9.757517,-0.000703,0.000927,0.000228,0.326591,1.214530,2.626535,778.93,15.00,highres
82.613013,9864234931,0.619060,0.006806,-9.753573,0.000124,0.001053,-0.000904,0.326591,1.214530,2.626535,778.93,15.00,highres
82.622050,9864243866,0.636571,0.011515,-9.730745,-0.001924,0.000927,-0.000077,0.326591,1.214530,2.626535,778.93,15.00,highres
82.630697,9864250388,0.629137,0.007394,-9.745032,-0.000647,0.000802,-0.000507,0.326591,1.214530,2.626535,778.93,15.00,highres
82.637207,9864261372,0.634807,0.011815,-9.747352,-0.000265,0.000795,-0.000383,0.326591,1.214530,2.626535,778.93,15.00,highres
82.646712,9864274108,0.622860,0.012440,-9.750335,-0.000092,-0.000327,-0.000897,0.326591,1.214530,2.626535,778.93,15.00,highres
82.658237,9864284119,0.625190,0.003860,-9.742156,-0.000955,0.000083,-0.000150,0.326591,1.214530,2.626535,778.93,15.00,highres
82.664746,9864293956,0.638422,0.016031,-9.753925,-0.000092,0.000316,-0.000077,0.326591,1.214530,2.626535,778.93,15.00,highres
82.681828,9864301827,0.632860,0.013285,-9.749490,-0.000397,0.000115,-0.000587,0.326591,1.214530,2.626535,778.93,15.00,highres
82.690205,9864306355,0.636028,0.006455,-9.745546,-0.000196,-0.000087,-0.000786,0.326591,1.214530,2.626535,778.93,15.00,highres
82.697251,9864323990,0.638364,0.004994,-9.744729,0.001228,0.001336,0.000540,0.326591,1.214530,2.626535,778.93,15.00,highres
82.712305,9864330218,0.636268,0.005016,-9.740759,0.001240,0.000955,-0.000688,0.326591,1.214530,2.626535,778.93,15.00,highres
82.721994,9864339532,0.624897,0.013995,-9.742275,0.000214,0.001232,-0.000383,0.320297,1.207484,2.629512,778.93,15.00,highres
82.730862,9864343982,0.634792,0.013598,-9.750829,0.000409,0.001037,-0.000663,0.320297,1.207484,2.629512,778.93,15.00,highres
82.736686,9864356879,0.627649,0.013637,-9.746743,0.000049,0.000175,-0.000406,0.319737,1.201256,2.636020,778.93,15.00,highres
82.747104,9864369315,0.634831,0.011243,-9.740757,0.000519,-0.000295,0.000228,0.319737,1.201256,2.636020,778.93,15.00,highres
82.760624,9864381303,0.635586,0.010801,-9.747941,-0.000906,0.000214,-0.000586,0.319737,1.201256,2.636020,778.93,15.00,highres
82.765937,9864391136,0.634863,0.006455,-9.736640,-0.000606,0.001023,-0.000479,0.319737,1.201256,2.636020,778.93,15.00,highres
82.781810,9864401379,0.637225,0.010046,-9.750336,-0.000876,0.001008,-0.000301,0.319737,1.201256,2.636020,778.93,15.00,highres
82.788803,9864406547,0.633088,0.008303,-9.737641,0.000431,0.001800,0.000317,0.319737,1.201256,2.636020,778.93,15.00,highres
82.802787,9864417418,0.639919,0.008248,-9.750334,-0.000244,0.001156,-0.000764,0.319737,1.201256,2.636020,778.93,15.00,highres
82.812374,9864428754,0.637225,0.016031,-9.745545,-0.000167,0.001002,-0.001222,0.319737,1.201256,2.636020,778.93,15.00,highres
82.822035,9864433724,0.638981,0.017023,-9.743916,-0.000028,0.001964,-0.000901,0.319737,1.201256,2.636020,778.93,15.00,highres
82.829973,9864444172,0.638563,0.015538,-9.751673,0.001130,0.000621,0.000839,0.319737,1.201256,2.636020,778.93,15.00,highres
82.842666,9864459159,0.638422,0.010046,-9.746744,-0.000052,0.000927,0.000228,0.319737,1.201256,2.636020,778.93,15.00,highres
82.846621,9864464539,0.652397,0.008445,-9.741140,-0.000397,0.001232,-0.000077,0.319737,1.201256,2.636020,778.93,15.00,highres
82.858268,9864469530,0.632140,0.011243,-9.744044,-0.000092,0.000316,-0.000383,0.323883,1.200080,2.631650,778.93,15.00,highres
82.864360,9864499070,0.634347,0.006938,-9.739101,0.000214,0.000199,-0.001370,0.323883,1.200080,2.631650,778.93,15.00,highres
82.880160,9864508784,0.628846,0.014834,-9.749137,-0.001008,0.002454,0.000534,0.323766,1.201212,2.659223,778.93,15.00,highres
82.887921,9864519526,0.636945,0.013569,-9.738925,0.000393,-0.000528,-0.001245,0.323766,1.201212,2.659223,778.92,15.00,highres
82.895918,9864528909,0.633634,0.013637,-9.744349,-0.000397,0.001232,-0.000077,0.323766,1.201212,2.659223,778.92,15.00,highres
82.913902,9864533504,0.639556,0.011600,-9.742311,0.000214,0.000010,-0.000826,0.323766,1.201212,2.659223,778.92,15.00,highres
82.921573,9864546969,0.630757,0.011243,-9.749600,0.000633,-0.000295,0.000420,0.323766,1.201212,2.659223,778.92,15.00,highres
82.930625,9864551890,0.635108,0.000747,-9.748004,0.000098,-0.000576,0.000039,0.323766,1.201212,2.659223,778.92,15.00,highres
82.935915,9864572173,0.638242,0.014030,-9.751612,0.000136,0.000124,-0.000498,0.323766,1.201212,2.659223,778.92,15.00,highres
82.945690,9864577511,0.641092,-0.002717,-9.750463,-0.000228,-0.001211,-0.000246,0.323766,1.201212,2.659223,778.92,15.00,highres
82.959652,9864589031,0.633833,0.014433,-9.755322,0.000568,0.001025,0.000228,0.323766,1.201212,2.659223,778.92,15.00,highres
82.975971,9864596118,0.634831,0.014283,-9.747844,0.000519,0.001173,-0.000626,0.323766,1.201212,2.659223,778.92,15.00,highres
82.981314,9864608724,0.634194,0.003555,-9.748315,-0.000092,0.001569,-0.000720,0.323766,1.201212,2.659223,778.92,15.00,highres
82.988729,9864619120,0.632221,0.007978,-9.752510,-0.000258,-0.000712,0.000395,0.323766,1.201212,2.659223,778.92,15.00,highres
82.995954,9864629036,0.636481,0.000825,-9.745546,-0.000092,0.000102,-0.000811,0.324163,1.205017,2.631788,778.92,15.00,highres
83.014061,9864639547,0.628522,0.011033,-9.753698,0.001130,0.000010,0.001145,0.354767,1.207314,2.630023,778.92,15.00,highres
83.022370,9864643897,0.636166,0.014270,-9.750898,0.001002,0.001451,0.001017,0.354767,1.207314,2.630023,778.92,15.00,highres
83.031444,9864659907,0.628846,0.002863,-9.746743,0.000262,0.000750,-0.000126,0.354767,1.207314,2.630023,778.92,15.00,highres
83.035521,9864669840,0.638422,0.017228,-9.741955,0.000214,0.001538,-0.000688,0.354767,1.207314,2.630023,778.92,15.00,highres
83.046328,9864674520,0.641738,0.017780,-9.740758,0.000543,0.001185,-0.000688,0.354767,1.207314,2.630023,778.92,15.00,highres
83.056847,9864686879,0.638268,0.012890,-9.736871,0.000214,0.001368,0.000364,0.354767,1.207314,2.630023,778.93,15.00,highres
83.064348,9864699672,0.634831,0.012440,-9.752727,-0.000304,0.000222,0.000253,0.354767,1.207314,2.630023,778.93,15.00,highres
83.081205,9864704072,0.625432,0.015526,-9.749661,0.000214,0.000884,-0.000119,0.354767,1.207314,2.630023,778.93,15.00,highres
83.088678,9864722462,0.632626,0.023791,-9.739655,-0.000397,0.000035,0.000118,0.354767,1.207314,2.630023,778.93,15.00,highres
83.096569,9864729397,0.630901,0.012999,-9.743690,0.000117,0.000573,-0.000286,0.354767,1.207314,2.630023,778.93,15.00,highres
83.112961,9864740151,0.632124,0.012440,-9.744036,0.000214,-0.000295,-0.000688,0.354767,1.207314,2.630023,778.93,15.00,highres
83.121679,9864751536,0.632805,0.003385,-9.745484,-0.000089,0.001229,-0.000139,0.354767,1.207314,2.630023,778.93,15.00,highres
83.130277,9864758945,0.628747,0.008649,-9.749237,0.000448,0.000756,0.000058,0.354767,1.207314,2.630023,778.93,15.00,highres
83.136331,9864764094,0.629153,0.007652,-9.745432,-0.000683,0.001074,-0.000993,0.323709,1.196736,2.637596,778.92,15.00,highres
83.151625,9864774111,0.631240,0.014834,-9.744349,0.000519,0.000688,-0.001435,0.339502,1.209566,2.636011,778.92,15.00,highres
83.157204,9864783927,0.643920,0.012663,-9.741244,-0.001031,0.001045,0.000392,0.339502,1.209566,2.636011,778.92,15.00,highres
83.163769,9864799164,0.632217,0.012440,-9.748869,-0.000129,0.001575,-0.000822,0.339502,1.209566,2.636011,778.92,15.00,highres
83.180786,9864808927,0.636832,0.002863,-9.744761,-0.000876,0.001323,-0.000510,0.339502,1.209566,2.636011,778.92,15.00,highres
83.193426,9864813799,0.634251,0.013908,-9.755702,-0.000836,0.000488,-0.000343,0.339502,1.209566,2.636011,778.92,15.00,highres
83.196380,9864824783,0.634831,0.016031,-9.750334,-0.000397,0.000501,0.000348,0.339502,1.209566,2.636011,778.92,15.00,highres
83.212892,9864832480,0.631247,0.012837,-9.758728,0.000519,0.001160,0.000345,0.339502,1.209566,2.636011,778.92,15.00,highres
83.222098,9864844224,0.628523,0.009372,-9.747619,0.000403,0.001147,0.000039,0.339502,1.209566,2.636011,778.92,15.00,highres
83.232640,9864854074,0.643581,0.020245,-9.749138,-0.000289,0.001538,0.000021,0.339502,1.209566,2.636011,778.92,15.00,highres
83.236407,9864864123,0.624057,0.010212,-9.752728,-0.000268,0.000477,0.000711,0.339502,1.209566,2.636011,778.92,15.00,highres
83.246657,9864876811,0.651388,0.002259,-9.743649,-0.000226,0.001128,-0.000263,0.339502,1.209566,2.636011,778.92,15.00,highres
83.258031,9864882088,0.640816,0.007652,-9.749138,-0.000106,-0.000906,-0.000438,0.339502,1.209566,2.636011,778.92,15.00,highres
83.263667,9864901409,0.639592,0.006933,-9.746807,-0.000619,0.001538,-0.000466,0.339502,1.209566,2.636011,778.92,15.00,highres
83.281374,9864909986,0.628931,0.008849,-9.746979,-0.000184,-0.000600,-0.001420,0.326838,1.201839,2.636497,778.92,15.00,highres
83.288269,9864919049,0.634505,0.018425,-9.752920,-0.000232,-0.000155,-0.000639,0.314571,1.204902,2.640266,778.92,15.00,highres
83.295598,9864926878,0.640424,0.009634,-9.752080,-0.000092,0.001232,-0.000981,0.314571,1.204902,2.640266,778.93,15.00,highres
83.313051,9864937507,0.625852,0.004361,-9.752428,-0.000703,0.001020,0.000839,0.314571,1.204902,2.640266,778.93,15.00,highres
83.322222,9864952476,0.641201,0.011050,-9.742844,-0.000141,0.000237,-0.000077,0.314571,1.204902,2.640266,778.93,15.00,highres
83.334830,9864956805,0.635896,0.008073,-9.743572,-0.000227,0.001538,0.000569,0.314571,1.204902,2.640266,778.93,15.00,highres
83.338119,9864961756,0.635107,0.000331,-9.744487,-0.000060,0.000766,0.000518,0.314571,1.204902,2.640266,778.93,15.00,highres
83.347029,9864979913,0.629453,0.010636,-9.736612,0.001286,-0.000295,-0.001299,0.314571,1.204902,2.640266,778.93,15.00,highres
83.360887,9864991782,0.634927,0.009264,-9.751533,0.000413,0.001126,-0.000383,0.314571,1.204902,2.640266,778.93,15.00,highres
83.364576,9864997015,0.629409,0.007088,-9.747167,0.000052,0.000189,-0.000221,0.314571,1.204902,2.640266,778.93,15.00,highres
83.378836,9865006977,0.629160,0.014456,-9.761549,0.000033,0.001663,-0.000563,0.314571,1.204902,2.640266,778.93,15.00,highres
83.378836,9865019818,0.636472,0.006455,-9.743374,0.000845,0.000805,0.001287,0.314571,1.204902,2.640266,778.93,15.00,highres
83.378836,9865030893,0.640879,0.009983,-9.750335,-0.000285,0.001425,-0.000398,0.314571,1.204902,2.640266,778.93,15.00,highres
83.378836,9865036668,0.638422,0.009082,-9.734306,0.000335,-0.000722,-0.000688,0.314571,1.204902,2.640266,778.93,15.00,highres
83.421500,9865051860,0.638152,0.017363,-9.739426,0.000214,0.001232,0.000330,0.321398,1.202810,2.631981,778.93,15.00,highres
83.432051,9865059817,0.641327,0.006538,-9.745203,0.000214,0.000855,0.000085,0.337469,1.201524,2.631283,778.93,15.00,highres
83.435848,9865069731,0.633634,0.017228,-9.744349,-0.000397,0.000927,-0.000077,0.337469,1.201524,2.631283,778.93,15.00,highres
83.447424,9865079151,0.639431,0.018339,-9.726855,0.000886,0.000439,-0.000811,0.337469,1.201524,2.631283,778.93,15.00,highres
83.457237,9865089699,0.636599,0.008867,-9.751514,-0.000092,0.000781,0.000529,0.337469,1.201524,2.631283,778.93,15.00,highres
83.463485,9865102361,0.637074,0.014273,-9.741622,-0.000397,-0.000256,0.000209,0.337469,1.201524,2.631283,778.93,15.00,highres
83.480226,9865107513,0.617710,0.014834,-9.753113,0.000606,0.002017,-0.000884,0.337469,1.201524,2.631283,778.93,15.00,highres
83.491565,9865119501,0.628589,0.012496,-9.739875,0.000054,0.001378,0.000294,0.337469,1.201524,2.631283,778.93,15.00,highres
83.497940,9865124473,0.626824,0.013625,-9.740340,0.000256,0.000711,0.000360,0.337469,1.201524,2.631283,778.93,15.00,highres
83.512586,9865135878,0.641350,0.013144,-9.748274,-0.000699,-0.000943,-0.000690,0.337469,1.201524,2.631283,778.93,15.00,highres
83.521440,9865144604,0.632958,0.011142,-9.761992,-0.000289,0.000479,-0.000786,0.337469,1.201524,2.631283,778.93,15.00,highres
83.531886,9865150160,0.643829,0.004624,-9.749506,0.000217,-0.000027,-0.000690,0.337469,1.201524,2.631283,778.93,15.00,highres
83.537418,9865165242,0.640203,0.016133,-9.751760,-0.000204,-0.000543,-0.001091,0.337469,1.201524,2.631283,778.92,15.00,highres
83.546453,9865180225,0.631618,0.000993,-9.737576,-0.000792,-0.000372,0.000704,0.337469,1.201524,2.631283,778.92,15.00,highres
83.558132,9865184818,0.633839,0.006034,-9.753300,0.000091,0.000763,-0.000616,0.324836,1.204311,2.635843,778.92,15.00,highres
83.569756,9865196892,0.633668,0.008855,-9.733807,0.000156,0.000646,-0.000446,0.316848,1.190675,2.639321,778.92,15.00,highres
83.581549,9865207107,0.631274,0.007658,-9.742186,0.000846,0.001374,0.000226,0.316848,1.190675,2.639321,778.92,15.00,highres
83.588210,9865213273,0.635015,0.012595,-9.739640,0.000217,0.001806,-0.000690,0.316848,1.190675,2.639321,778.92,15.00,highres
83.595958,9865221989,0.632470,0.011249,-9.746973,-0.000168,0.001195,-0.000252,0.316848,1.190675,2.639321,778.92,15.00,highres
83.606760,9865228128,0.636938,0.006547,-9.746097,0.001439,-0.000027,-0.000996,0.316848,1.190675,2.639321,778.92,15.00,highres
83.621974,9865238320,0.639148,0.005705,-9.741428,-0.000699,0.000279,-0.001301,0.316848,1.190675,2.639321,778.93,15.00,highres
83.631593,9865247746,0.627162,0.015361,-9.753325,-0.000088,0.000426,0.000464,0.316848,1.190675,2.639321,778.93,15.00,highres
83.638093,9865259709,0.633213,0.016863,-9.740837,-0.001082,0.000356,-0.000271,0.316848,1.190675,2.639321,778.93,15.00,highres
83.651099,9865279405,0.631273,0.011249,-9.748170,0.000028,0.001176,0.000168,0.316848,1.190675,2.639321,778.93,15.00,highres
83.656718,9865290349,0.635567,0.008360,-9.751842,0.000828,0.001094,0.001041,0.316848,1.190675,2.639321,778.93,15.00,highres
83.665168,9865294720,0.629970,0.000702,-9.746974,0.001282,-0.000364,0.000069,0.316848,1.190675,2.639321,778.93,15.00,highres
83.680725,9865305895,0.631042,0.011739,-9.745293,0.001304,0.001810,0.000159,0.316848,1.190675,2.639321,778.93,15.00,highres
83.688159,9865310329,0.642047,0.004613,-9.744034,0.001745,0.001064,0.000313,0.316928,1.199660,2.633668,778.93,15.00,highres
83.696915,9865320351,0.639336,0.004067,-9.745143,0.001134,0.001195,-0.000385,0.316928,1.199660,2.633668,778.93,15.00,highres
83.714035,9865333004,0.636875,0.010555,-9.746661,-0.000484,0.001913,-0.000690,0.329748,1.201922,2.627887,778.93,15.00,highres
83.721647,9865350255,0.633445,0.023271,-9.756372,0.000247,0.001442,-0.001054,0.329748,1.201922,2.627887,778.93,15.00,highres
83.730791,9865358046,0.629386,0.013320,-9.745733,0.000217,0.001148,-0.001266,0.329748,1.201922,2.627887,778.93,15.00,highres
83.741192,9865372307,0.636065,0.016721,-9.751247,0.000435,0.000191,-0.001607,0.329748,1.201922,2.627887,778.93,15.00,highres
83.747098,9865379617,0.644441,0.017235,-9.752957,-0.000394,-0.000027,-0.000690,0.329748,1.201922,2.627887,778.93,15.00,highres
83.757667,9865392376,0.628879,0.019629,-9.735004,0.000828,0.000302,-0.000549,0.329748,1.201922,2.627887,778.93,15.00,highres
83.764347,9865397616,0.626485,0.015139,-9.739252,-0.000256,0.000813,-0.000690,0.329748,1.201922,2.627887,778.93,15.00,highres
83.783572,9865409701,0.644441,0.010052,-9.749367,-0.000212,0.000890,-0.000671,0.329748,1.201922,2.627887,778.93,15.00,highres
83.789270,9865421741,0.626969,0.013974,-9.740561,-0.000699,0.000111,-0.001026,0.329748,1.201922,2.627887,778.93,15.00,highres
83.797097,9865430827,0.635522,0.020480,-9.743229,-0.000048,-0.000284,0.000138,0.329748,1.201922,2.627887,778.93,15.00,highres
83.813203,9865439474,0.643681,0.003307,-9.744579,-0.000782,0.001417,-0.000690,0.329748,1.201922,2.627887,778.93,15.00,highres
83.822052,9865444733,0.642152,0.017655,-9.741093,0.000217,0.001500,0.000226,0.329748,1.201922,2.627887,778.93,15.00,highres
