t_wall_s,t_boot_us,ax,ay,az,gx,gy,gz,mx,my,mz,abs_pressure,temperature,source
2.253148,35229994296,-0.042332,-0.074644,-9.846965,-0.000462,0.001039,0.000774,0.151224,1.043068,2.713388,781.51,40.00,highres
2.253148,35230014476,-0.042332,-0.072249,-9.855346,0.000760,-0.000182,0.000469,0.146320,1.039244,2.716188,781.51,40.00,highres
2.253148,35230031926,-0.045924,-0.084222,-9.842425,-0.001076,-0.000804,-0.000148,0.146320,1.039244,2.716188,781.50,40.00,highres
2.253148,35230056993,-0.043530,-0.080631,-9.847215,0.001978,-0.000499,-0.000454,0.146523,1.041580,2.715364,781.50,40.00,highres
2.253148,35230087196,-0.047121,-0.085419,-9.846018,0.000756,-0.001415,0.000462,0.146523,1.041580,2.715364,781.50,40.00,highres
2.253148,35230103975,-0.055501,-0.081828,-9.835242,0.000756,0.000417,0.000462,0.146523,1.041580,2.715364,781.50,40.00,highres
2.253148,35230124709,-0.049515,-0.085419,-9.843625,0.000145,0.000112,-0.000148,0.146523,1.041580,2.715364,781.50,40.00,highres
2.253148,35230141099,-0.038742,-0.079434,-9.838836,0.000451,0.000723,-0.000148,0.146523,1.041580,2.715364,781.50,40.00,highres
2.253645,35230161811,-0.050713,-0.089011,-9.831653,-0.000466,-0.000499,-0.000148,0.144766,1.042053,2.714179,781.50,40.00,highres
2.253645,35230176924,-0.051910,-0.071055,-9.835244,-0.000771,0.000723,0.000157,0.142794,1.044190,2.712937,781.50,40.00,highres
2.253645,35230194491,-0.050713,-0.077040,-9.849609,0.000145,-0.000804,0.000462,0.142794,1.044190,2.712937,781.50,40.00,highres
2.253645,35230224693,-0.057895,-0.080631,-9.843624,-0.000771,-0.000194,0.000462,0.142794,1.044190,2.712937,781.50,40.00,highres
2.253645,35230244491,-0.048318,-0.075843,-9.838835,0.000756,0.000112,0.000157,0.142794,1.044190,2.712937,781.50,40.00,highres
2.253645,35230268135,-0.063880,-0.077040,-9.842427,0.001062,0.000723,0.000157,0.142794,1.044190,2.712937,781.50,40.00,highres
2.253645,35230284451,-0.055501,-0.079434,-9.847215,0.000145,0.001028,0.000462,0.142794,1.044190,2.712937,781.51,40.00,highres
2.253911,35230305135,-0.037545,-0.077040,-9.849608,-0.000466,0.000112,0.000157,0.144780,1.041503,2.720216,781.51,40.00,highres
2.253911,35230322353,-0.045924,-0.079434,-9.840033,-0.000160,-0.000194,-0.000148,0.144780,1.041503,2.720216,781.51,40.00,highres
2.253911,35230344535,-0.038742,-0.090208,-9.847215,-0.000466,0.000723,0.001073,0.144865,1.045387,2.722979,781.51,40.00,highres
2.253911,35230365166,-0.054304,-0.083025,-9.835244,0.000451,0.001028,0.000157,0.144865,1.045387,2.722979,781.51,40.00,highres
2.253911,35230384593,-0.057895,-0.077040,-9.838837,0.000451,0.000723,0.000768,0.144865,1.045387,2.722979,781.51,40.00,highres
2.253911,35230405727,-0.041136,-0.079434,-9.846019,-0.000160,0.000417,0.000157,0.144865,1.045387,2.722979,781.51,40.00,highres
2.253911,35230425022,-0.047121,-0.068661,-9.835244,-0.000160,-0.001415,-0.000148,0.144865,1.045387,2.722979,781.51,40.00,highres
2.254097,35230442591,-0.042333,-0.078237,-9.837639,0.000145,0.002555,0.001073,0.145992,1.049054,2.722042,781.51,40.00,highres
2.254097,35230462795,-0.055501,-0.081828,-9.826865,-0.000160,-0.001110,-0.000148,0.145992,1.049054,2.722042,781.51,40.00,highres
2.254097,35230482027,-0.051910,-0.077040,-9.844823,-0.000771,0.001028,0.000768,0.144772,1.037886,2.715534,781.51,40.00,highres
2.254097,35230504846,-0.041136,-0.073449,-9.836441,-0.000771,0.000417,-0.000759,0.144772,1.037886,2.715534,781.51,40.00,highres
2.254097,35230525237,-0.049515,-0.078237,-9.846017,-0.000466,-0.000194,0.000768,0.144772,1.037886,2.715534,781.51,40.00,highres
2.254097,35230542653,-0.050713,-0.071055,-9.849609,-0.001382,-0.001110,0.000157,0.144772,1.037886,2.715534,781.51,40.00,highres
2.254097,35230567325,-0.049515,-0.091405,-9.840033,-0.000466,-0.000499,0.001073,0.144772,1.037886,2.715534,781.51,40.00,highres
2.254097,35230583413,-0.051910,-0.080631,-9.848413,-0.000160,-0.000804,0.000768,0.146676,1.039710,2.719013,781.51,40.00,highres
2.254231,35230602524,-0.042333,-0.085419,-9.841228,0.000756,0.001028,0.000462,0.146676,1.039710,2.719013,781.52,40.00,highres
2.254231,35230622474,-0.050713,-0.073449,-9.832851,-0.000466,0.001028,-0.000454,0.143796,1.046919,2.723228,781.52,40.00,highres
2.254231,35230645752,-0.048318,-0.079434,-9.841228,0.001062,0.000112,0.000157,0.143796,1.046919,2.723228,781.52,40.00,highres
2.254231,35230662345,-0.035151,-0.072252,-9.836442,0.000451,0.001639,0.000768,0.143796,1.046919,2.723228,781.52,40.00,highres
2.254231,35230688948,-0.045924,-0.087814,-9.843622,0.000756,0.000417,0.000157,0.143796,1.046919,2.723228,781.51,40.00,highres
2.254231,35230701342,-0.056698,-0.078237,-9.850807,0.000756,-0.000194,-0.000454,0.143796,1.046919,2.723228,781.51,40.00,highres
2.254231,35230722600,-0.042333,-0.091405,-9.835244,-0.000160,0.000112,0.000462,0.152996,1.042833,2.714819,781.51,40.00,highres
2.254231,35230737886,-0.037545,-0.072252,-9.846018,-0.000466,-0.000499,0.000157,0.152996,1.042833,2.714819,781.51,40.00,highres
2.254335,35230761366,-0.051910,-0.073449,-9.848413,-0.000466,-0.001415,-0.000454,0.141763,1.038877,2.718499,781.51,40.00,highres
2.254335,35230781089,-0.045924,-0.087814,-9.848413,0.000451,0.001639,-0.000454,0.141763,1.038877,2.718499,781.51,40.00,highres
2.254335,35230800677,-0.041136,-0.080631,-9.844820,-0.000771,0.000112,0.000768,0.141763,1.038877,2.718499,781.51,40.00,highres
2.254335,35230817866,-0.048318,-0.084222,-9.840033,-0.001076,-0.000194,0.001379,0.141763,1.038877,2.718499,781.51,40.00,highres
2.254335,35230837807,-0.043530,-0.081828,-9.850807,0.000145,-0.000499,0.000157,0.141763,1.038877,2.718499,781.51,40.00,highres
2.254335,35230858311,-0.051910,-0.083025,-9.848413,0.001672,0.000723,0.001073,0.147926,1.048248,2.718477,781.51,40.00,highres
2.254335,35230878353,-0.048318,-0.075843,-9.844822,-0.000160,0.000112,0.000768,0.147926,1.048248,2.718477,781.51,40.00,highres
2.254462,35230897846,-0.063880,-0.085419,-9.848413,0.000145,0.001334,0.001073,0.130781,1.049427,2.718460,781.51,40.00,highres
2.254462,35230912726,-0.053107,-0.084222,-9.834047,-0.001076,-0.000499,-0.000148,0.130781,1.049427,2.718460,781.51,40.00,highres
2.254462,35230938090,-0.054304,-0.077040,-9.841229,0.000756,-0.000499,-0.000759,0.130781,1.049427,2.718460,781.51,40.00,highres
2.254462,35230959664,-0.045924,-0.078237,-9.836441,-0.000466,-0.000499,0.001073,0.130781,1.049427,2.718460,781.51,40.00,highres
2.254462,35230977858,-0.051910,-0.073449,-9.830457,0.000145,-0.000194,-0.000148,0.130781,1.049427,2.718460,781.51,40.00,highres
2.254462,35231000390,-0.050713,-0.072252,-9.832850,0.000145,0.000112,-0.000759,0.134468,1.049466,2.726178,781.51,40.00,highres
2.254462,35231017923,-0.066274,-0.079434,-9.834047,0.000145,0.000417,0.000768,0.134468,1.049466,2.726178,781.51,40.00,highres
2.254462,35231040438,-0.048318,-0.074646,-9.837638,-0.000160,0.001944,0.000157,0.145653,1.045846,2.721660,781.51,40.00,highres
2.254597,35231058753,-0.057899,-0.079437,-9.841118,-0.000771,-0.000513,-0.000151,0.145653,1.045846,2.721660,781.51,40.00,highres
2.254597,35231078136,-0.048322,-0.083028,-9.844709,-0.000160,0.000403,0.001071,0.145653,1.045846,2.721660,781.51,40.00,highres
2.254597,35231093246,-0.049519,-0.087816,-9.833935,0.000451,-0.000818,0.000460,0.145653,1.045846,2.721660,781.51,40.00,highres
2.254597,35231115800,-0.057899,-0.078240,-9.833936,-0.000160,-0.001124,-0.000456,0.145653,1.045846,2.721660,781.51,40.00,highres
2.254597,35231138181,-0.053110,-0.071058,-9.845907,0.001062,-0.001124,-0.000456,0.134948,1.045445,2.717488,781.51,40.00,highres
2.254597,35231158495,-0.041140,-0.075846,-9.827950,-0.000160,-0.000818,0.000155,0.134948,1.045445,2.717488,781.50,40.00,highres
2.254597,35231175534,-0.049519,-0.077043,-9.850694,-0.000466,-0.000207,0.000155,0.144453,1.045846,2.715894,781.50,40.00,highres
2.254597,35231195512,-0.042337,-0.066270,-9.844709,0.000145,-0.000818,-0.000762,0.144453,1.045846,2.715894,781.50,40.00,highres
2.254783,35231220406,-0.050716,-0.073452,-9.841118,0.001062,-0.000207,0.000766,0.144453,1.045846,2.715894,781.50,40.00,highres
2.254783,35231235492,-0.045928,-0.077043,-9.847103,-0.000466,0.000709,0.000155,0.144453,1.045846,2.715894,781.51,40.00,highres
2.254783,35231258139,-0.042337,-0.081831,-9.849498,-0.000466,-0.000207,-0.000456,0.144453,1.045846,2.715894,781.51,40.00,highres
2.254783,35231275557,-0.038746,-0.078240,-9.837527,-0.000466,0.000709,0.000155,0.144907,1.043394,2.722976,781.51,40.00,highres
2.254783,35231305594,-0.043534,-0.084225,-9.844707,0.000756,-0.001124,0.000460,0.144907,1.043394,2.722976,781.51,40.00,highres
2.254783,35231323041,-0.049519,-0.078240,-9.844709,-0.000771,-0.000513,0.001071,0.143855,1.041793,2.718238,781.51,40.00,highres
2.254783,35231346071,-0.048322,-0.071058,-9.850694,0.000756,0.000709,0.001377,0.143855,1.041793,2.718238,781.51,40.00,highres
2.254957,35231361833,-0.057898,-0.080634,-9.838724,0.000451,0.000709,0.000155,0.143855,1.041793,2.718238,781.51,40.00,highres
2.254957,35231381518,-0.043534,-0.065073,-9.841119,-0.001076,-0.000818,-0.000762,0.143855,1.041793,2.718238,781.51,40.00,highres
2.254957,35231401071,-0.048322,-0.080634,-9.844709,-0.001076,0.000403,0.000766,0.143855,1.041793,2.718238,781.51,40.00,highres
2.254957,35231422088,-0.053110,-0.071058,-9.845906,0.000145,-0.000513,0.000460,0.148050,1.044721,2.720394,781.51,40.00,highres
2.254957,35231441731,-0.044731,-0.078240,-9.861467,0.000756,0.000098,-0.000762,0.148050,1.044721,2.720394,781.51,40.00,highres
2.254957,35231463820,-0.051913,-0.075846,-9.845904,0.000145,-0.000818,-0.001067,0.141954,1.041625,2.723354,781.51,40.00,highres
2.254957,35231483781,-0.041140,-0.071058,-9.833937,0.000145,-0.000207,0.000460,0.141954,1.041625,2.723354,781.51,40.00,highres
2.254957,35231503255,-0.044731,-0.073452,-9.845907,0.000451,0.000098,-0.000762,0.141954,1.041625,2.723354,781.51,40.00,highres
2.255076,35231518409,-0.050716,-0.074649,-9.843513,-0.001076,-0.000207,0.000155,0.141954,1.041625,2.723354,781.51,40.00,highres
2.255076,35231535608,-0.051913,-0.066270,-9.847103,-0.000771,-0.000207,0.000155,0.141954,1.041625,2.723354,781.51,40.00,highres
2.255076,35231558593,-0.047125,-0.074649,-9.839923,-0.000771,0.000709,0.000460,0.145274,1.042708,2.715230,781.50,40.00,highres
2.255076,35231583188,-0.050093,-0.073352,-9.832639,-0.000978,-0.000985,0.001188,0.145274,1.042708,2.715230,781.50,40.00,highres
2.255076,35231603453,-0.057899,-0.073452,-9.847104,0.000451,-0.001124,0.000766,0.148353,1.039238,2.719733,781.50,40.00,highres
2.255076,35231623041,-0.048322,-0.085422,-9.849498,-0.000771,0.000403,0.001071,0.148353,1.039238,2.719733,781.50,40.00,highres
2.255076,35231641542,-0.045928,-0.085422,-9.850695,-0.000466,0.001014,0.000766,0.148353,1.039238,2.719733,781.50,40.00,highres
2.255184,35231663044,-0.044731,-0.075846,-9.838725,-0.000771,0.000403,-0.000151,0.148353,1.039238,2.719733,781.50,40.00,highres
2.255184,35231682347,-0.045928,-0.080634,-9.841118,-0.000160,-0.000513,0.001987,0.148353,1.039238,2.719733,781.50,40.00,highres
2.255184,35231702226,-0.054307,-0.081831,-9.838723,0.000145,-0.000207,0.000460,0.144684,1.040788,2.712710,781.50,40.00,highres
2.255184,35231721927,-0.044731,-0.084225,-9.844709,-0.000160,0.000098,0.000460,0.144684,1.040788,2.712710,781.50,40.00,highres
2.255184,35231746221,-0.050716,-0.078240,-9.849498,-0.000160,0.001320,0.000155,0.149424,1.051701,2.717226,781.50,40.00,highres
2.255184,35231762292,-0.042337,-0.080634,-9.836329,0.001367,-0.001124,-0.000761,0.149424,1.051701,2.717226,781.50,40.00,highres
2.255184,35231779717,-0.055504,-0.078240,-9.832738,0.001062,-0.000818,-0.000762,0.149424,1.051701,2.717226,781.50,40.00,highres
2.255184,35231801969,-0.053110,-0.078240,-9.837526,-0.000466,-0.000207,0.000155,0.149424,1.051701,2.717226,781.51,40.00,highres
2.255302,35231822731,-0.037549,-0.085422,-9.843511,-0.000771,-0.000818,0.000766,0.149424,1.051701,2.717226,781.51,40.00,highres
2.255302,35231838699,-0.043534,-0.069861,-9.841118,-0.000466,0.000403,0.000155,0.147235,1.038795,2.718081,781.51,40.00,highres
2.255302,35231861881,-0.051913,-0.079437,-9.836329,-0.000160,0.001014,-0.000456,0.147235,1.038795,2.718081,781.51,40.00,highres
2.255302,35231884928,-0.039943,-0.073452,-9.839921,-0.000771,0.000098,-0.000456,0.154448,1.037566,2.721776,781.51,40.20,highres
2.255302,35231903885,-0.051913,-0.078240,-9.841116,0.000451,0.000709,0.001071,0.154448,1.037566,2.721776,781.51,40.20,highres
2.255302,35231927049,-0.035155,-0.074649,-9.836329,-0.000771,0.000098,-0.000456,0.154448,1.037566,2.721776,781.51,40.20,highres
2.255302,35231946539,-0.043534,-0.072255,-9.838723,0.000451,-0.000513,0.000766,0.154448,1.037566,2.721776,781.51,40.20,highres
2.255406,35231964489,-0.042337,-0.077043,-9.847103,0.001062,-0.000207,0.001071,0.154448,1.037566,2.721776,781.52,40.40,highres
2.255406,35231983758,-0.057898,-0.085422,-9.845907,-0.000771,-0.000207,0.000766,0.145530,1.049724,2.717205,781.52,40.40,highres
2.255406,35232004062,-0.042337,-0.093802,-9.841118,-0.000466,-0.001124,0.000460,0.145530,1.049724,2.717205,781.52,40.40,highres
2.255406,35232023799,-0.049519,-0.073452,-9.845906,-0.000771,0.000403,0.000155,0.139084,1.039108,2.719782,781.52,40.40,highres
2.255406,35232043917,-0.053110,-0.085422,-9.839919,0.000451,0.001320,0.000766,0.139084,1.039108,2.719782,781.52,40.40,highres
2.255406,35232064511,-0.049514,-0.079431,-9.837742,0.000761,0.000386,0.000759,0.139084,1.039108,2.719782,781.52,40.40,highres
2.255406,35232084361,-0.051908,-0.075840,-9.838940,0.000761,0.000997,0.000453,0.139084,1.039108,2.719782,781.52,40.40,highres
2.255406,35232104149,-0.051908,-0.080628,-9.842531,-0.000766,-0.000225,-0.000158,0.139084,1.039108,2.719782,781.52,40.40,highres
2.255406,35232124014,-0.035149,-0.079431,-9.844925,-0.000461,0.000691,-0.000158,0.145057,1.046825,2.717020,781.52,40.40,highres
2.255521,35232139224,-0.038740,-0.078234,-9.853302,-0.000155,0.000691,0.000148,0.145057,1.046825,2.717020,781.52,40.40,highres
2.255521,35232156588,-0.039937,-0.075840,-9.852108,0.000456,0.001302,-0.000158,0.133764,1.046726,2.725004,781.52,40.40,highres
2.255521,35232180164,-0.042331,-0.084219,-9.840137,-0.000461,0.000691,0.001064,0.133764,1.046726,2.725004,781.52,40.40,highres
2.255521,35232201811,-0.039937,-0.060278,-9.855698,-0.002599,-0.000836,-0.000158,0.133764,1.046726,2.725004,781.50,40.40,highres
2.255521,35232222606,-0.059090,-0.074643,-9.838940,-0.000461,0.000386,-0.000158,0.133764,1.046726,2.725004,781.50,40.40,highres
2.255599,35232241823,-0.041134,-0.077037,-9.842530,-0.000461,0.000997,0.000148,0.133764,1.046726,2.725004,781.50,40.40,highres
2.255599,35232261528,-0.047119,-0.084219,-9.850909,0.000456,0.000691,-0.000158,0.140272,1.054309,2.722620,781.50,40.40,highres
2.295817,35232278903,-0.049824,-0.089629,-9.836637,0.000150,-0.000225,0.000453,0.140272,1.054309,2.722620,781.50,40.40,highres
2.317272,35232304225,-0.044788,-0.083209,-9.845749,-0.000155,-0.000836,-0.000158,0.131159,1.049027,2.720371,781.50,40.40,highres
2.335111,35232316609,-0.045922,-0.080628,-9.832954,-0.000461,-0.000225,0.001064,0.131159,1.049027,2.720371,781.50,40.40,highres
2.357031,35232343058,-0.037543,-0.085416,-9.848516,0.000150,0.000386,0.001369,0.131159,1.049027,2.720371,781.50,40.40,highres
2.376199,35232359717,-0.053105,-0.068658,-9.841333,-0.000461,-0.000836,0.000453,0.131159,1.049027,2.720371,781.51,40.40,highres
2.396065,35232379882,-0.054302,-0.075840,-9.835348,0.000456,0.000081,-0.001074,0.131159,1.049027,2.720371,781.51,40.40,highres
2.416185,35232400404,-0.045922,-0.084219,-9.841334,0.000150,0.001302,0.001675,0.137265,1.047775,2.720674,781.51,40.40,highres
2.438419,35232416637,-0.042331,-0.071052,-9.832954,-0.000461,0.000386,0.002286,0.137265,1.047775,2.720674,781.51,40.40,highres
2.458193,35232436844,-0.035149,-0.085416,-9.836545,-0.000155,-0.000836,-0.000158,0.132936,1.046335,2.720352,781.51,40.40,highres
2.477392,35232456631,-0.045922,-0.078234,-9.842531,-0.000155,-0.000225,0.001369,0.132936,1.046335,2.720352,781.51,40.40,highres
2.495598,35232479416,-0.026770,-0.062672,-9.847319,0.000150,-0.000836,0.000453,0.132936,1.046335,2.720352,781.51,40.40,highres
2.515723,35232495174,-0.036346,-0.074643,-9.846123,0.000456,-0.001141,0.001064,0.132936,1.046335,2.720352,781.51,40.40,highres
2.535324,35232519686,-0.043528,-0.085416,-9.842529,0.000761,0.001302,0.000759,0.132936,1.046335,2.720352,781.51,40.40,highres
2.556938,35232541117,-0.044725,-0.086613,-9.843727,-0.000461,-0.000225,-0.000158,0.149945,1.048355,2.719239,781.51,40.40,highres
2.575636,35232556818,-0.044725,-0.074643,-9.850910,0.000456,-0.000836,0.001369,0.147055,1.044427,2.713384,781.51,40.40,highres
2.594683,35232576834,-0.043528,-0.083022,-9.843727,-0.000461,-0.000530,0.000453,0.147055,1.044427,2.713384,781.51,40.40,highres
2.615501,35232597057,-0.041134,-0.081825,-9.842531,-0.000461,0.000997,0.000759,0.147055,1.044427,2.713384,781.51,40.40,highres
2.636532,35232621940,-0.044725,-0.085416,-9.840136,-0.000461,0.000691,0.001064,0.147055,1.044427,2.713384,781.51,40.40,highres
2.655475,35232644607,-0.048316,-0.075840,-9.842530,-0.000155,0.000691,-0.000463,0.147055,1.044427,2.713384,781.51,40.40,highres
2.676289,35232664779,-0.048316,-0.077037,-9.840137,0.000761,-0.000225,-0.000463,0.147055,1.044427,2.713384,781.51,40.40,highres
2.695143,35232685659,-0.041134,-0.081825,-9.843727,0.000150,0.000081,0.000453,0.149230,1.044364,2.715706,781.51,40.40,highres
2.713295,35232704394,-0.044725,-0.074643,-9.843727,0.000150,0.001608,0.000759,0.149230,1.044364,2.715706,781.51,40.40,highres
2.728229,35232725290,-0.042331,-0.075840,-9.841333,-0.000461,0.000081,0.000148,0.140167,1.038431,2.714779,781.51,40.40,highres
2.755908,35232744529,-0.043528,-0.075840,-9.846122,-0.001072,-0.000836,0.000148,0.140167,1.038431,2.714779,781.51,40.40,highres
2.778889,35232759675,-0.043528,-0.072249,-9.849713,0.000150,-0.001141,0.000453,0.140167,1.038431,2.714779,781.50,40.40,highres
2.796381,35232784685,-0.042331,-0.071052,-9.853304,-0.000461,0.000386,0.000148,0.140167,1.038431,2.714779,781.50,40.40,highres
2.816642,35232805001,-0.039937,-0.075840,-9.843727,-0.001072,-0.000225,-0.000463,0.140167,1.038431,2.714779,781.50,40.40,highres
2.836452,35232822227,-0.048316,-0.080628,-9.840138,-0.000155,-0.001141,-0.001074,0.147363,1.041211,2.716875,781.50,40.40,highres
2.856148,35232844889,-0.055499,-0.083022,-9.850911,0.000150,-0.000530,0.000148,0.147363,1.041211,2.716875,781.51,40.40,highres
2.877450,35232864764,-0.044725,-0.075840,-9.838941,0.001066,0.000997,0.000453,0.148515,1.048376,2.724039,781.51,40.40,highres
2.896783,35232879685,-0.039937,-0.079431,-9.838940,0.001066,0.000386,-0.000158,0.148515,1.048376,2.724039,781.51,40.40,highres
2.916248,35232897679,-0.041134,-0.073446,-9.850910,-0.000766,0.001608,0.000453,0.148515,1.048376,2.724039,781.51,40.40,highres
2.935037,35232919584,-0.050711,-0.084219,-9.843727,-0.000766,0.000386,0.000759,0.148515,1.048376,2.724039,781.51,40.40,highres
2.956896,35232941605,-0.047119,-0.074643,-9.848516,0.001066,-0.000225,-0.000463,0.148515,1.048376,2.724039,781.51,40.40,highres
2.975500,35232959871,-0.050711,-0.078234,-9.838941,0.000150,0.000081,0.000148,0.144837,1.047182,2.726322,781.51,40.40,highres
2.996292,35232977623,-0.049514,-0.077037,-9.835348,0.000150,0.000386,0.001064,0.144837,1.047182,2.726322,781.51,40.40,highres
3.017158,35233002301,-0.050711,-0.077037,-9.844925,-0.000461,0.000386,0.000453,0.139810,1.045576,2.716310,781.51,40.40,highres
3.036627,35233018303,-0.051908,-0.080628,-9.838940,0.000150,0.001913,0.001064,0.139810,1.045576,2.716310,781.51,40.40,highres
3.056679,35233041129,-0.048316,-0.087810,-9.840137,0.001066,0.000386,-0.000769,0.139810,1.045576,2.716310,781.51,40.40,highres
3.076370,35233058091,-0.053101,-0.080631,-9.843085,-0.000767,0.000386,0.001667,0.139810,1.045576,2.716310,781.51,40.40,highres
3.096025,35233081120,-0.042327,-0.091405,-9.847873,0.001371,0.000692,0.001362,0.139810,1.045576,2.716310,781.50,40.40,highres
3.116794,35233101107,-0.048313,-0.075843,-9.847873,-0.000767,0.000386,0.001057,0.143537,1.044501,2.717201,781.50,40.40,highres
3.136015,35233120643,-0.026766,-0.073449,-9.851464,-0.000156,-0.000530,-0.000471,0.143537,1.044501,2.717201,781.50,40.40,highres
3.156249,35233137807,-0.042327,-0.075843,-9.858645,0.000150,-0.000225,0.000140,0.151709,1.043365,2.724477,781.50,40.40,highres
3.176541,35233148306,-0.050707,-0.090208,-9.833510,-0.000461,0.000386,0.000446,0.151709,1.043365,2.724477,781.50,40.40,highres
3.196524,35233182329,-0.050707,-0.072252,-9.828721,0.000149,0.000692,-0.000471,0.151709,1.043365,2.724477,781.51,40.40,highres
3.214943,35233195828,-0.043525,-0.083025,-9.831115,0.000149,0.000081,0.001057,0.151709,1.043365,2.724477,781.51,40.40,highres
3.235527,35233220571,-0.049510,-0.068661,-9.852661,-0.001072,-0.000225,0.001667,0.151709,1.043365,2.724477,781.51,40.40,highres
3.255722,35233242985,-0.043525,-0.073449,-9.835902,0.000760,0.000386,-0.000165,0.143554,1.042578,2.717923,781.51,40.40,highres
3.255722,35233263186,-0.049510,-0.072252,-9.843085,0.000150,0.000692,-0.000776,0.143554,1.042578,2.717923,781.51,40.40,highres
3.296638,35233281447,-0.051904,-0.075843,-9.846677,0.000760,0.000997,-0.000471,0.144304,1.042589,2.720581,781.51,40.40,highres
3.307982,35233300746,-0.048313,-0.069858,-9.849071,0.001066,0.000386,0.000140,0.144304,1.042589,2.720581,781.51,40.40,highres
3.332452,35233318223,-0.051904,-0.086616,-9.840693,0.000150,-0.000530,0.000446,0.144304,1.042589,2.720581,781.51,40.40,highres
3.356601,35233338426,-0.044722,-0.081828,-9.838296,0.000760,-0.000836,-0.000471,0.144304,1.042589,2.720581,781.51,40.40,highres
3.376529,35233360674,-0.048313,-0.072252,-9.850267,0.000150,-0.000225,0.000751,0.144304,1.042589,2.720581,781.51,40.40,highres
3.395729,35233378165,-0.048313,-0.078237,-9.840691,-0.000156,0.001302,0.000446,0.152013,1.050131,2.713995,781.51,40.40,highres
3.415811,35233401248,-0.047116,-0.080631,-9.832310,0.000760,0.000081,0.000751,0.152013,1.050131,2.713995,781.50,40.40,highres
3.436871,35233422772,-0.036342,-0.079434,-9.855056,0.000150,0.000081,0.000140,0.139327,1.038057,2.708535,781.50,40.40,highres
3.457509,35233438232,-0.043525,-0.074646,-9.839494,-0.000156,-0.000530,0.000140,0.139327,1.038057,2.708535,781.50,40.40,highres
3.477272,35233461245,-0.041130,-0.077040,-9.845479,-0.000156,0.001302,0.000751,0.139327,1.038057,2.708535,781.50,40.40,highres
3.491406,35233478604,-0.062677,-0.077040,-9.843085,-0.000156,0.000997,0.001057,0.139327,1.038057,2.708535,781.51,40.40,highres
3.515628,35233502067,-0.043525,-0.090208,-9.840691,0.000455,0.000386,0.000446,0.139327,1.038057,2.708535,781.51,40.40,highres
3.536998,35233520801,-0.027963,-0.071055,-9.846677,-0.000461,-0.000225,0.000751,0.146952,1.041620,2.720791,781.51,40.40,highres
3.555510,35233543104,-0.042327,-0.072252,-9.837099,0.000760,0.000081,-0.000165,0.146952,1.041620,2.720791,781.51,40.40,highres
3.576690,35233561217,-0.053101,-0.087813,-9.835902,0.000455,-0.000225,0.000140,0.146509,1.047507,2.720376,781.52,40.40,highres
3.595788,35233582936,-0.050707,-0.072252,-9.832312,0.000150,-0.000225,0.000140,0.146509,1.047507,2.720376,781.52,40.40,highres
3.616562,35233601382,-0.053101,-0.085419,-9.838297,-0.000156,-0.000225,0.000751,0.146509,1.047507,2.720376,781.52,40.40,highres
3.636682,35233618246,-0.036490,-0.084909,-9.847726,0.000455,0.000386,0.000751,0.146509,1.047507,2.720376,781.52,40.40,highres
3.655665,35233641174,-0.038736,-0.072252,-9.844282,0.000149,0.000997,0.000140,0.146509,1.047507,2.720376,781.52,40.40,highres
3.677277,35233661590,-0.042327,-0.083025,-9.843084,0.000760,0.001608,0.001057,0.149103,1.041948,2.716913,781.52,40.40,highres
3.695397,35233678541,-0.043525,-0.083025,-9.841888,-0.000156,-0.001141,-0.000776,0.149103,1.041948,2.716913,781.52,40.40,highres
3.716406,35233698330,-0.039933,-0.075843,-9.853859,0.001677,0.000692,0.000140,0.140995,1.038822,2.719431,781.52,40.40,highres
3.735704,35233718332,-0.044722,-0.078237,-9.849072,0.000760,0.001302,0.000751,0.140995,1.038822,2.719431,781.52,40.40,highres
3.755143,35233743256,-0.049510,-0.079434,-9.829916,-0.000156,0.000081,-0.000471,0.140995,1.038822,2.719431,781.52,40.40,highres
3.776265,35233762400,-0.041130,-0.080631,-9.841887,-0.000156,-0.000836,-0.000471,0.140995,1.038822,2.719431,781.52,40.40,highres
3.797552,35233782690,-0.039933,-0.074646,-9.840691,0.000149,-0.000836,-0.000165,0.140995,1.038822,2.719431,781.52,40.40,highres
3.815884,35233801211,-0.049510,-0.074646,-9.826326,-0.000461,-0.000225,-0.000471,0.152816,1.045579,2.711287,781.51,40.40,highres
3.836126,35233822344,-0.051904,-0.083025,-9.831115,-0.000767,0.000386,0.000446,0.152816,1.045579,2.711287,781.51,40.40,highres
3.858241,35233841573,-0.045919,-0.073449,-9.849071,0.001066,0.000386,0.000751,0.145603,1.039151,2.713840,781.51,40.40,highres
3.879476,35233861519,-0.038736,-0.073449,-9.839493,0.001066,0.000386,0.000446,0.145603,1.039151,2.713840,781.51,40.40,highres
3.895975,35233875381,-0.033948,-0.090208,-9.843085,0.001066,0.000081,-0.001081,0.145603,1.039151,2.713840,781.51,40.20,highres
3.915926,35233901539,-0.038736,-0.080631,-9.834705,-0.000461,-0.000225,-0.000165,0.145603,1.039151,2.713840,781.51,40.20,highres
3.936392,35233918383,-0.050707,-0.075843,-9.840691,0.000455,-0.000225,-0.000471,0.145603,1.039151,2.713840,781.51,40.20,highres
3.956720,35233943272,-0.051904,-0.074646,-9.846677,0.000149,0.001302,0.001362,0.144195,1.039749,2.717223,781.51,40.20,highres
3.976308,35233959482,-0.050707,-0.079434,-9.840691,0.000149,0.000997,0.000140,0.144195,1.039749,2.717223,781.51,40.00,highres
3.996431,35233980423,-0.047116,-0.080631,-9.834705,-0.001378,0.000386,-0.000776,0.147050,1.036340,2.722247,781.51,40.00,highres
4.015744,35233998617,-0.049510,-0.081828,-9.837100,0.000455,-0.000836,-0.000165,0.147050,1.036340,2.722247,781.51,40.00,highres
4.035768,35234015990,-0.042327,-0.079434,-9.844281,0.000149,0.000692,0.001057,0.147050,1.036340,2.722247,781.51,40.00,highres
4.055943,35234042110,-0.059086,-0.072252,-9.837099,0.000455,-0.000225,-0.000471,0.147050,1.036340,2.722247,781.50,40.00,highres
4.077367,35234062218,-0.054301,-0.075844,-9.836383,0.000455,-0.000829,0.000136,0.147050,1.036340,2.722247,781.50,40.00,highres
4.095731,35234081512,-0.038740,-0.075844,-9.841171,-0.000767,0.001003,0.000442,0.144036,1.044296,2.723484,781.50,40.00,highres
4.115002,35234101964,-0.041134,-0.077041,-9.842369,0.000149,-0.001135,0.000136,0.144036,1.044296,2.723484,781.50,40.00,highres
4.134945,35234118491,-0.053104,-0.086617,-9.844763,0.000455,-0.001440,0.000136,0.152410,1.057092,2.714508,781.50,40.00,highres
4.156625,35234138908,-0.048316,-0.069858,-9.841171,0.000149,0.000392,0.001663,0.152410,1.057092,2.714508,781.50,40.00,highres
4.176177,35234159524,-0.043528,-0.073450,-9.838778,0.001066,-0.001135,-0.001086,0.152410,1.057092,2.714508,781.50,40.00,highres
4.195789,35234182428,-0.035148,-0.083026,-9.839973,-0.000156,0.000698,0.001663,0.152410,1.057092,2.714508,781.50,40.00,highres
4.216632,35234201923,-0.041134,-0.084223,-9.837581,-0.000156,-0.000218,0.000136,0.152410,1.057092,2.714508,781.51,40.00,highres
4.235585,35234219688,-0.048316,-0.067464,-9.845960,0.000149,-0.000218,-0.000475,0.151337,1.046075,2.716194,781.51,40.00,highres
4.255270,35234238847,-0.035148,-0.086617,-9.841171,-0.000156,-0.001135,-0.000475,0.151337,1.046075,2.716194,781.51,40.00,highres
4.257382,35234256236,-0.042331,-0.079435,-9.831594,-0.000156,-0.001135,0.000442,0.152558,1.038257,2.721740,781.51,40.00,highres
4.298537,35234273673,-0.050710,-0.086617,-9.844763,-0.001072,-0.000524,-0.000169,0.152558,1.038257,2.721740,781.51,40.00,highres
4.316274,35234293546,-0.043528,-0.081829,-9.845960,0.000760,0.001614,-0.000475,0.152558,1.038257,2.721740,781.51,40.00,highres
4.335727,35234324020,-0.037542,-0.081829,-9.830397,0.000090,0.000929,0.000245,0.152558,1.038257,2.721740,781.51,40.00,highres
4.354993,35234343334,-0.038740,-0.080632,-9.839973,0.001066,-0.001135,0.001052,0.152558,1.038257,2.721740,781.51,40.00,highres
4.376130,35234363852,-0.057892,-0.085420,-9.842369,-0.000461,0.000698,0.000136,0.148684,1.048496,2.714684,781.50,40.00,highres
4.395949,35234383386,-0.051907,-0.068661,-9.843566,0.000149,-0.000829,0.000136,0.148684,1.048496,2.714684,781.50,40.00,highres
4.417859,35234398658,-0.049513,-0.075844,-9.835186,-0.000461,-0.000829,-0.000780,0.148646,1.044883,2.716308,781.50,40.00,highres
4.436034,35234421635,-0.055498,-0.077041,-9.845958,-0.000156,0.000392,0.001052,0.148646,1.044883,2.716308,781.50,40.00,highres
4.455978,35234439163,-0.045922,-0.079435,-9.841171,-0.000767,0.000087,0.000136,0.148646,1.044883,2.716308,781.50,40.00,highres
4.476661,35234462110,-0.042331,-0.096193,-9.844763,-0.000461,0.000392,-0.000475,0.148646,1.044883,2.716308,781.50,40.00,highres
4.497951,35234481705,-0.041134,-0.083026,-9.847157,0.000760,-0.000218,-0.001696,0.148646,1.044883,2.716308,781.50,40.00,highres
4.513942,35234496390,-0.051907,-0.085420,-9.838777,0.000455,0.000087,-0.000475,0.147831,1.043593,2.720231,781.50,40.00,highres
4.535402,35234513927,-0.054301,-0.075844,-9.843566,0.000149,0.000698,0.000747,0.147831,1.043593,2.720231,781.51,40.00,highres
4.555133,35234544688,-0.042331,-0.074647,-9.844763,-0.000461,-0.000524,0.000747,0.144111,1.033064,2.715070,781.51,40.00,highres
4.576199,35234565022,-0.062681,-0.080632,-9.849551,0.000149,-0.000829,-0.000169,0.144111,1.033064,2.715070,781.51,40.00,highres
4.595787,35234583959,-0.047119,-0.078238,-9.837578,0.000760,-0.000218,-0.001086,0.144111,1.033064,2.715070,781.51,40.00,highres
4.616220,35234602127,-0.054301,-0.079435,-9.841170,-0.000156,-0.000524,-0.000169,0.144111,1.033064,2.715070,781.51,40.00,highres
4.636479,35234619543,-0.042331,-0.093799,-9.843566,0.000149,-0.001135,0.000442,0.144111,1.033064,2.715070,781.51,40.00,highres
4.656613,35234639172,-0.039937,-0.077041,-9.843565,0.000149,0.001003,-0.000169,0.146218,1.045623,2.716289,781.51,40.00,highres
4.675988,35234662112,-0.048316,-0.069858,-9.843566,-0.000461,0.000698,0.000747,0.146218,1.045623,2.716289,781.51,40.00,highres
4.695816,35234679552,-0.051907,-0.075844,-9.844763,0.000149,0.001003,0.000136,0.143975,1.037881,2.712088,781.51,40.00,highres
4.715510,35234699569,-0.047119,-0.085420,-9.833989,-0.000461,-0.000218,0.000136,0.143975,1.037881,2.712088,781.51,40.00,highres
4.735132,35234717493,-0.041134,-0.077041,-9.847157,-0.000156,-0.000829,0.000136,0.143975,1.037881,2.712088,781.51,40.00,highres
4.755372,35234726288,-0.051907,-0.074647,-9.845960,-0.000461,-0.000829,0.000747,0.143975,1.037881,2.712088,781.51,40.00,highres
4.775781,35234758635,-0.044725,-0.072253,-9.842369,0.001066,-0.000524,0.000747,0.143975,1.037881,2.712088,781.51,40.00,highres
4.795322,35234782295,-0.044725,-0.083026,-9.836383,0.000455,-0.000218,0.000442,0.147807,1.048356,2.722330,781.51,40.00,highres
4.815107,35234802710,-0.051907,-0.079435,-9.843565,0.001066,0.000087,0.000442,0.147807,1.048356,2.722330,781.51,40.00,highres
4.834727,35234820322,-0.045922,-0.080632,-9.841171,0.000760,-0.000524,0.000747,0.146514,1.048375,2.714427,781.51,40.00,highres
4.855034,35234839138,-0.044725,-0.092602,-9.842369,0.000149,-0.000829,-0.000169,0.146514,1.048375,2.714427,781.51,40.00,highres
4.875587,35234862271,-0.038740,-0.093799,-9.838777,0.000149,-0.000218,0.000442,0.146514,1.048375,2.714427,781.51,40.00,highres
4.895861,35234881941,-0.041134,-0.066267,-9.837579,-0.000156,0.000392,0.001663,0.146514,1.048375,2.714427,781.51,40.00,highres
4.916642,35234902706,-0.039937,-0.074647,-9.831594,-0.000461,-0.000829,-0.000169,0.146514,1.048375,2.714427,781.51,40.00,highres
4.935585,35234923218,-0.044725,-0.066267,-9.837581,0.000760,0.000087,0.001052,0.148704,1.040327,2.717081,781.51,40.00,highres
4.956480,35234941021,-0.051907,-0.069858,-9.844762,0.001066,-0.000829,-0.000169,0.148704,1.040327,2.717081,781.51,40.00,highres
4.978481,35234959189,-0.045922,-0.085420,-9.838777,0.000149,-0.000524,0.000747,0.154030,1.038034,2.713894,781.51,40.00,highres
4.996684,35234982938,-0.045922,-0.077041,-9.833989,0.000149,0.001003,0.000747,0.154030,1.038034,2.713894,781.51,40.00,highres
5.016691,35234999489,-0.053104,-0.079435,-9.856733,-0.000156,-0.000524,0.000136,0.154030,1.038034,2.713894,781.52,40.00,highres
5.035914,35235022412,-0.042331,-0.084223,-9.844763,-0.001072,0.001614,0.000442,0.154030,1.038034,2.713894,781.52,40.00,highres
5.055482,35235039271,-0.047119,-0.083026,-9.838777,-0.000461,-0.000829,-0.000169,0.154030,1.038034,2.713894,781.52,40.00,highres
5.077697,35235060393,-0.054301,-0.077041,-9.839973,0.000760,0.000087,0.000442,0.148950,1.039574,2.714458,781.52,40.00,highres
5.095501,35235077210,-0.053107,-0.083026,-9.849061,-0.000765,-0.000211,-0.000177,0.148950,1.039574,2.714458,781.51,40.00,highres
5.116718,35235102002,-0.050713,-0.081829,-9.863424,0.000151,0.000706,0.000434,0.149824,1.051701,2.719148,781.51,40.00,highres
5.136358,35235123025,-0.059092,-0.074647,-9.847863,0.001067,0.000095,0.000434,0.149824,1.051701,2.719148,781.51,40.00,highres
5.156757,35235140460,-0.051910,-0.081829,-9.843076,-0.000154,0.000095,0.001656,0.149824,1.051701,2.719148,781.51,40.00,highres
5.178396,35235159273,-0.037545,-0.080632,-9.845469,0.001067,-0.000211,0.000129,0.149824,1.051701,2.719148,781.51,40.00,highres
5.195585,35235177966,-0.044728,-0.086617,-9.838286,-0.000765,0.000095,0.001351,0.149824,1.051701,2.719148,781.51,40.00,highres
5.214732,35235202167,-0.044728,-0.085420,-9.838286,0.001373,0.000095,-0.000787,0.137364,1.052600,2.718128,781.51,40.00,highres
5.236904,35235220929,-0.033954,-0.083026,-9.846667,-0.000765,-0.000516,-0.000787,0.137364,1.052600,2.718128,781.51,40.00,highres
5.254860,35235241967,-0.042334,-0.081829,-9.833498,-0.001071,-0.000211,0.000434,0.129561,1.048144,2.719824,781.51,40.00,highres
5.266757,35235260133,-0.057895,-0.089011,-9.855046,0.000151,0.000095,0.001045,0.129561,1.048144,2.719824,781.51,40.00,highres
5.266757,35235277763,-0.045925,-0.087814,-9.847864,-0.000460,-0.000516,-0.000177,0.129561,1.048144,2.719824,781.51,40.00,highres
5.320110,35235304913,-0.047122,-0.071056,-9.844273,0.000151,0.000095,-0.000177,0.129561,1.048144,2.719824,781.51,40.00,highres
5.334992,35235317713,-0.049516,-0.075844,-9.845469,-0.000460,-0.000211,-0.000177,0.129561,1.048144,2.719824,781.50,40.00,highres
5.356243,35235343120,-0.044728,-0.093800,-9.840680,0.000456,-0.000211,0.000129,0.138005,1.045164,2.715499,781.50,40.00,highres
5.375704,35235365150,-0.048319,-0.085420,-9.845468,-0.000765,0.000400,0.000740,0.138005,1.045164,2.715499,781.50,40.00,highres
5.394843,35235385073,-0.036348,-0.080632,-9.846666,0.000456,0.000706,-0.000176,0.135658,1.053249,2.722522,781.50,40.00,highres
5.416825,35235404442,-0.053107,-0.079435,-9.850258,0.001678,0.001317,0.001045,0.135658,1.053249,2.722522,781.50,40.00,highres
5.435805,35235423358,-0.039939,-0.083026,-9.845469,-0.001071,-0.001127,-0.001398,0.135658,1.053249,2.722522,781.50,40.00,highres
5.455664,35235445306,-0.045925,-0.092603,-9.845469,-0.000460,0.000400,-0.000177,0.135658,1.053249,2.722522,781.50,40.00,highres
5.476059,35235464940,-0.044728,-0.069859,-9.835893,-0.000765,-0.001127,-0.000482,0.135658,1.053249,2.722522,781.50,40.00,highres
5.496357,35235483188,-0.054304,-0.072253,-9.838286,-0.000765,0.000706,0.000434,0.141967,1.054948,2.717240,781.50,40.00,highres
5.516141,35235504846,-0.049516,-0.066268,-9.850258,-0.000154,-0.000516,0.001962,0.141967,1.054948,2.717240,781.50,40.00,highres
5.535302,35235520564,-0.047122,-0.084223,-9.840681,-0.000460,0.000095,0.000434,0.142493,1.044899,2.718997,781.50,40.00,highres
5.557100,35235537681,-0.035151,-0.092603,-9.843075,-0.001071,0.000706,-0.000482,0.142493,1.044899,2.718997,781.50,40.00,highres
5.575880,35235563379,-0.049516,-0.079435,-9.835892,-0.001376,-0.000516,-0.000177,0.142493,1.044899,2.718997,781.50,40.00,highres
5.595695,35235578602,-0.043531,-0.080632,-9.840681,-0.000765,0.001011,-0.000177,0.142493,1.044899,2.718997,781.50,40.00,highres
5.616379,35235600478,-0.041136,-0.079435,-9.834696,0.000151,-0.000821,0.000129,0.142493,1.044899,2.718997,781.50,40.00,highres
5.636084,35235621331,-0.054661,-0.081535,-9.840554,-0.000460,0.000706,0.000434,0.138248,1.051676,2.719531,781.50,40.00,highres
5.654961,35235641622,-0.042334,-0.079435,-9.843075,-0.000765,0.000400,-0.000177,0.138248,1.051676,2.719531,781.50,40.00,highres
5.675059,35235657992,-0.051910,-0.078238,-9.843075,0.000456,0.000706,0.001045,0.129609,1.048940,2.720245,781.50,40.00,highres
5.695240,35235682656,-0.041136,-0.085420,-9.841878,-0.000154,0.000095,0.000740,0.129609,1.048940,2.720245,781.50,40.00,highres
5.715177,35235702980,-0.042334,-0.081829,-9.852650,-0.000765,0.000400,0.001045,0.129609,1.048940,2.720245,781.50,40.00,highres
5.727642,35235721020,-0.047129,-0.086624,-9.844134,0.000459,-0.002035,-0.000180,0.129609,1.048940,2.720245,781.50,40.00,highres
5.755458,35235739649,-0.044735,-0.071063,-9.840544,0.000154,-0.000508,-0.000485,0.129609,1.048940,2.720245,781.50,40.00,highres
5.776760,35235760876,-0.033961,-0.074654,-9.847727,-0.000457,-0.001119,-0.001096,0.132245,1.046547,2.719287,781.50,40.00,highres
5.795372,35235780899,-0.054311,-0.072260,-9.841742,0.000459,0.000408,0.000126,0.132245,1.046547,2.719287,781.50,40.00,highres
5.815781,35235802687,-0.043538,-0.072260,-9.840543,-0.000762,0.000408,0.000737,0.134029,1.045639,2.716942,781.50,40.00,highres
5.835869,35235821597,-0.049523,-0.081836,-9.850120,-0.000151,-0.000508,0.001042,0.134029,1.045639,2.716942,781.50,40.00,highres
5.855712,35235840718,-0.039947,-0.080639,-9.844134,-0.000151,-0.001425,0.000126,0.134029,1.045639,2.716942,781.50,40.00,highres
5.876803,35235861089,-0.037552,-0.078245,-9.845331,0.000154,0.000408,0.000431,0.134029,1.045639,2.716942,781.50,40.00,highres
5.895123,35235880843,-0.041144,-0.077048,-9.846528,0.000154,-0.000508,-0.001096,0.134029,1.045639,2.716942,781.50,40.00,highres
5.915462,35235901472,-0.041144,-0.084230,-9.847726,0.000154,-0.001119,0.000737,0.137536,1.046805,2.722980,781.50,40.00,highres
5.928864,35235918920,-0.039947,-0.079442,-9.841741,0.000459,-0.001425,0.000737,0.137536,1.046805,2.722980,781.50,40.00,highres
5.955890,35235942084,-0.042341,-0.073457,-9.852514,0.001681,-0.000814,-0.000180,0.129361,1.051314,2.720778,781.50,40.00,highres
5.976301,35235959644,-0.041144,-0.083033,-9.844134,-0.000151,-0.000814,0.000126,0.129361,1.051314,2.720778,781.50,40.00,highres
5.996307,35235978260,-0.041144,-0.078245,-9.847726,-0.000457,0.000408,0.000431,0.129361,1.051314,2.720778,781.50,40.00,highres
6.015320,35235998616,-0.039947,-0.078245,-9.852514,-0.000762,-0.000203,0.000126,0.129361,1.051314,2.720778,781.50,40.00,highres
6.035059,35236022150,-0.048326,-0.087821,-9.840543,-0.000762,0.000713,0.001042,0.129361,1.051314,2.720778,781.50,40.00,highres
6.054908,35236042020,-0.032764,-0.073457,-9.840545,0.000154,-0.000203,0.000431,0.137031,1.054632,2.720178,781.50,40.00,highres
6.076377,35236058800,-0.042341,-0.074654,-9.848924,-0.001679,0.001019,0.000737,0.137031,1.054632,2.720178,781.50,40.00,highres
6.094432,35236081360,-0.035158,-0.077048,-9.840543,0.000154,0.000103,0.000126,0.138470,1.049083,2.717081,781.50,40.00,highres
6.114573,35236101869,-0.043538,-0.089018,-9.847726,0.000154,-0.001119,-0.000180,0.138470,1.049083,2.717081,781.50,40.00,highres
6.134608,35236119051,-0.043538,-0.075851,-9.844133,-0.000457,-0.000203,-0.000485,0.138470,1.049083,2.717081,781.50,40.00,highres
6.155912,35236142538,-0.043538,-0.078245,-9.842937,-0.000762,-0.001425,0.000126,0.138470,1.049083,2.717081,781.50,40.00,highres
6.176339,35236158877,-0.041144,-0.083033,-9.844136,0.000765,-0.000203,0.000431,0.138470,1.049083,2.717081,781.50,40.00,highres
6.195916,35236176014,-0.047129,-0.074654,-9.844135,-0.000151,0.000713,-0.000180,0.141755,1.051271,2.716659,781.50,40.00,highres
6.215313,35236195563,-0.039947,-0.084230,-9.839347,-0.000762,-0.000814,-0.000791,0.141755,1.051271,2.716659,781.51,40.00,highres
6.235858,35236215908,-0.051917,-0.083033,-9.844134,-0.000151,-0.000814,0.000431,0.128710,1.047352,2.715162,781.51,40.00,highres
6.256045,35236232269,-0.057902,-0.090216,-9.836953,-0.001679,-0.001119,-0.000180,0.128710,1.047352,2.715162,781.51,40.00,highres
6.275559,35236265649,-0.045932,-0.071063,-9.838151,-0.000151,0.001019,0.000431,0.128710,1.047352,2.715162,781.51,40.00,highres
6.277871,35236281083,-0.039947,-0.086624,-9.846528,0.000765,0.000408,0.001042,0.128710,1.047352,2.715162,781.50,40.00,highres
6.277871,35236302868,-0.048326,-0.071063,-9.840543,0.000765,-0.000814,0.000126,0.128710,1.047352,2.715162,781.50,40.00,highres
6.335659,35236325339,-0.048326,-0.085427,-9.846528,0.000765,0.000103,0.000126,0.146580,1.051503,2.720276,781.50,40.00,highres
6.355794,35236344161,-0.033961,-0.079442,-9.842937,0.000154,0.000408,0.000737,0.146580,1.051503,2.720276,781.50,40.00,highres
6.376547,35236363243,-0.032764,-0.067472,-9.845332,-0.000762,-0.000814,0.000737,0.139213,1.047864,2.722484,781.50,40.00,highres
6.395090,35236383460,-0.054311,-0.078245,-9.842937,-0.000457,0.000713,0.000431,0.139213,1.047864,2.722484,781.50,40.00,highres
6.414815,35236406851,-0.039947,-0.075851,-9.840543,0.000459,0.002241,-0.000791,0.139213,1.047864,2.722484,781.50,40.00,highres
6.435520,35236419062,-0.047129,-0.084230,-9.848922,0.000459,-0.000203,0.000737,0.139213,1.047864,2.722484,781.50,40.00,highres
6.455098,35236441836,-0.036355,-0.083033,-9.844134,-0.000457,0.000103,0.000431,0.139213,1.047864,2.722484,781.50,40.00,highres
6.476590,35236461866,-0.038750,-0.090216,-9.844135,0.000154,-0.000508,-0.000485,0.150980,1.045260,2.715907,781.50,40.00,highres
6.495862,35236481461,-0.049523,-0.075851,-9.845332,0.000154,-0.000508,-0.000485,0.150980,1.045260,2.715907,781.50,40.00,highres
6.515445,35236499108,-0.042341,-0.073457,-9.838149,-0.000457,0.000408,-0.000791,0.144829,1.045009,2.720978,781.50,40.00,highres
6.535444,35236521331,-0.047129,-0.071063,-9.839346,0.001070,0.001019,0.000431,0.144829,1.045009,2.720978,781.50,40.00,highres
6.556100,35236538956,-0.039947,-0.078245,-9.854909,-0.000457,-0.000203,0.000737,0.144829,1.045009,2.720978,781.50,40.00,highres
6.577125,35236563459,-0.045932,-0.078245,-9.846528,0.000154,-0.000203,-0.000180,0.144829,1.045009,2.720978,781.50,40.00,highres
6.595891,35236582236,-0.039947,-0.080639,-9.857303,-0.000151,-0.000508,0.001042,0.144829,1.045009,2.720978,781.50,40.00,highres
6.615049,35236602129,-0.048326,-0.079442,-9.845332,0.000459,0.000713,-0.000180,0.144258,1.046472,2.716032,781.51,40.00,highres
6.634989,35236621242,-0.036355,-0.074654,-9.848924,-0.000457,-0.000203,0.000126,0.144258,1.046472,2.716032,781.51,40.00,highres
6.655402,35236638822,-0.043538,-0.073457,-9.852514,-0.000151,0.000103,0.001653,0.141928,1.040792,2.726118,781.51,40.00,highres
6.677743,35236656214,-0.048326,-0.077048,-9.846528,-0.001373,-0.000203,0.000737,0.141928,1.040792,2.726118,781.51,40.00,highres
6.696167,35236679925,-0.045932,-0.073457,-9.842937,0.000765,0.001019,0.001958,0.141928,1.040792,2.726118,781.51,40.00,highres
6.717051,35236695857,-0.042341,-0.079442,-9.841743,0.000459,-0.000508,-0.000180,0.141928,1.040792,2.726118,781.51,40.00,highres
6.736099,35236716321,-0.045932,-0.080639,-9.842937,0.000154,0.001324,0.001042,0.141928,1.040792,2.726118,781.51,40.00,highres
6.755499,35236736136,-0.033961,-0.075857,-9.848462,0.000467,0.000721,0.001343,0.149590,1.045174,2.716470,781.51,40.00,highres
6.776632,35236756683,-0.042340,-0.074660,-9.844872,-0.000755,-0.000196,-0.000185,0.149590,1.045174,2.716470,781.51,40.00,highres
6.795042,35236783752,-0.036355,-0.078251,-9.848461,0.000467,-0.000875,0.000561,0.140999,1.046473,2.713741,781.51,40.00,highres
6.816275,35236803729,-0.043537,-0.079448,-9.848462,0.001077,0.000110,-0.000185,0.140999,1.046473,2.713741,781.51,40.00,highres
6.834896,35236823653,-0.050719,-0.073463,-9.848462,0.000467,-0.000196,-0.000490,0.140999,1.046473,2.713741,781.51,40.00,highres
6.855852,35236843802,-0.048676,-0.074165,-9.844520,-0.000144,0.000415,0.000426,0.140999,1.046473,2.713741,781.51,40.00,highres
6.877088,35236864161,-0.047128,-0.066280,-9.846067,-0.000450,-0.001417,0.000121,0.140999,1.046473,2.713741,781.51,40.00,highres
6.894671,35236882224,-0.048325,-0.080645,-9.830506,-0.000755,0.000110,0.000426,0.149564,1.045043,2.713918,781.51,40.00,highres
6.915684,35236902395,-0.050719,-0.071068,-9.835296,-0.000450,-0.000196,0.000426,0.149564,1.045043,2.713918,781.51,40.00,highres
6.935116,35236919180,-0.044734,-0.069871,-9.841281,-0.000450,0.000721,-0.001101,0.142915,1.039837,2.710358,781.50,40.00,highres
6.955487,35236942078,-0.042340,-0.077054,-9.840082,-0.000450,-0.000196,-0.000490,0.142915,1.039837,2.710358,781.50,40.00,highres
6.976054,35236958850,-0.043537,-0.075857,-9.850856,0.000467,-0.000806,0.000426,0.142915,1.039837,2.710358,781.50,40.00,highres
6.994915,35236981855,-0.037552,-0.085433,-9.847265,-0.000144,0.000415,-0.000185,0.142915,1.039837,2.710358,781.50,40.00,highres
7.010319,35236997061,-0.045931,-0.083039,-9.840083,-0.000144,0.000415,0.000121,0.142915,1.039837,2.710358,781.49,40.00,highres
7.034757,35237021655,-0.056705,-0.087827,-9.837688,0.001077,0.000721,-0.000490,0.146194,1.042426,2.716491,781.49,40.00,highres
7.056185,35237039644,-0.047128,-0.086630,-9.838885,-0.000755,0.000415,0.001037,0.146194,1.042426,2.716491,781.49,40.00,highres
7.076599,35237056416,-0.045931,-0.078251,-9.830506,0.000467,0.000110,0.000426,0.149344,1.043741,2.714945,781.49,40.00,highres
7.095821,35237082697,-0.041143,-0.073463,-9.838885,0.000161,0.001026,0.000426,0.149344,1.043741,2.714945,781.49,40.00,highres
7.115166,35237099526,-0.044734,-0.077054,-9.846067,-0.000144,-0.001112,0.000426,0.149344,1.043741,2.714945,781.49,40.00,highres
7.135038,35237119408,-0.035158,-0.077054,-9.847265,0.000161,0.001332,-0.000795,0.149344,1.043741,2.714945,781.49,40.00,highres
7.155722,35237140974,-0.049522,-0.081842,-9.849660,-0.001366,-0.001112,-0.000490,0.149344,1.043741,2.714945,781.49,40.00,highres
7.177564,35237159157,-0.048325,-0.079448,-9.840082,-0.000450,-0.000806,-0.000490,0.149215,1.049113,2.719079,781.50,40.00,highres
7.195274,35237182016,-0.036896,-0.077700,-9.842478,-0.000144,-0.000196,-0.000490,0.149215,1.049113,2.719079,781.50,40.00,highres
7.217006,35237203084,-0.049522,-0.073463,-9.844872,0.000467,0.000110,-0.000185,0.133572,1.044419,2.716578,781.50,40.00,highres
7.235593,35237219944,-0.037552,-0.072266,-9.846067,0.000161,0.000110,0.000426,0.133572,1.044419,2.716578,781.50,40.00,highres
7.255530,35237238817,-0.041143,-0.079448,-9.847265,-0.000144,-0.000501,0.000121,0.133572,1.044419,2.716578,781.49,40.00,highres
7.278512,35237262023,-0.037552,-0.071068,-9.837688,-0.000755,0.001026,0.000426,0.133572,1.044419,2.716578,781.49,40.00,highres
7.278512,35237279027,-0.042340,-0.069871,-9.843675,0.000161,0.000415,-0.000795,0.133572,1.044419,2.716578,781.49,40.00,highres
7.278512,35237302446,-0.039946,-0.081842,-9.842477,0.000161,0.000721,-0.000185,0.149840,1.046602,2.718393,781.49,40.00,highres
7.336597,35237322177,-0.041143,-0.077054,-9.838885,0.000467,-0.000501,0.000121,0.149840,1.046602,2.718393,781.49,40.00,highres
7.355215,35237340391,-0.048325,-0.084236,-9.846068,0.000772,0.000110,-0.000490,0.148552,1.050068,2.716123,781.49,40.00,highres
7.379531,35237362144,-0.060296,-0.075857,-9.843676,-0.000755,-0.000196,-0.000185,0.148552,1.050068,2.716123,781.49,40.00,highres
7.395411,35237375072,-0.042340,-0.075857,-9.847263,0.001383,-0.000501,0.000426,0.148552,1.050068,2.716123,781.49,40.00,highres
7.416076,35237396650,-0.045931,-0.079448,-9.850855,-0.000450,0.001026,0.000426,0.148552,1.050068,2.716123,781.49,40.00,highres
7.434801,35237423293,-0.044734,-0.075857,-9.850856,0.000518,0.000192,0.000345,0.148552,1.050068,2.716123,781.49,40.00,highres
7.455780,35237439582,-0.055508,-0.085433,-9.836491,0.000161,0.001026,0.001037,0.146468,1.041802,2.716578,781.49,40.00,highres
7.476167,35237462102,-0.044734,-0.075857,-9.842478,0.000161,0.000415,-0.000795,0.146468,1.041802,2.716578,781.49,40.00,highres
7.496628,35237484489,-0.060296,-0.075857,-9.843674,0.000772,-0.000806,0.000121,0.145369,1.041502,2.716363,781.50,40.00,highres
7.515777,35237502674,-0.042340,-0.075857,-9.846068,-0.000755,0.001026,0.000426,0.145369,1.041502,2.716363,781.50,40.00,highres
7.535384,35237524439,-0.042340,-0.071068,-9.847264,0.001383,0.000415,0.000426,0.145369,1.041502,2.716363,781.50,40.00,highres
7.555183,35237542323,-0.048325,-0.081842,-9.841279,-0.000144,0.000721,-0.001101,0.145369,1.041502,2.716363,781.50,40.00,highres
7.575087,35237565056,-0.043537,-0.083039,-9.853251,-0.000450,0.001026,0.001037,0.145369,1.041502,2.716363,781.49,40.00,highres
7.596899,35237584646,-0.044734,-0.083039,-9.834098,-0.000144,0.001332,0.000732,0.147537,1.041713,2.715747,781.49,40.00,highres
7.614572,35237604398,-0.042340,-0.077054,-9.849659,0.000772,-0.000501,0.000426,0.147537,1.041713,2.715747,781.49,40.00,highres
7.635769,35237625484,-0.045931,-0.083039,-9.850856,-0.000755,0.001332,0.000121,0.145719,1.041148,2.714294,781.49,40.00,highres
7.655575,35237645086,-0.043537,-0.084236,-9.838885,-0.000450,0.000415,0.000121,0.145719,1.041148,2.714294,781.50,40.00,highres
7.676285,35237662419,-0.042340,-0.083039,-9.840083,-0.000755,-0.000806,0.000426,0.145719,1.041148,2.714294,781.50,40.00,highres
7.694941,35237674558,-0.050719,-0.078251,-9.831702,-0.000144,0.000415,-0.000490,0.145719,1.041148,2.714294,781.50,40.00,highres
7.717380,35237696956,-0.038749,-0.074660,-9.844872,-0.000450,0.001332,0.000121,0.145719,1.041148,2.714294,781.50,40.00,highres
7.736703,35237717068,-0.053114,-0.083039,-9.847264,0.000161,0.000110,-0.000795,0.146304,1.044520,2.715435,781.50,40.00,highres
7.755396,35237734825,-0.049522,-0.081842,-9.836491,0.000467,-0.000806,-0.000490,0.146304,1.044520,2.715435,781.50,40.00,highres
7.776064,35237755113,-0.048322,-0.075856,-9.858410,0.000468,-0.000796,0.001030,0.144747,1.044709,2.712210,781.50,40.00,highres
7.795986,35237772274,-0.056701,-0.080644,-9.844045,0.001079,-0.001101,0.000724,0.144747,1.044709,2.712210,781.50,40.00,highres
7.818523,35237802548,-0.049519,-0.072264,-9.852426,0.000395,0.000169,0.000025,0.144747,1.044709,2.712210,781.50,40.00,highres
7.836006,35237824605,-0.056701,-0.084235,-9.848833,-0.000448,-0.000490,0.000724,0.144747,1.044709,2.712210,781.50,40.00,highres
7.856107,35237844545,-0.053110,-0.075855,-9.842848,0.000468,0.000426,0.001030,0.144747,1.044709,2.712210,781.50,40.00,highres
7.875721,35237861855,-0.044730,-0.097402,-9.858408,-0.001059,0.000426,-0.000803,0.148142,1.044309,2.715100,781.50,40.00,highres
7.895430,35237882199,-0.056701,-0.081841,-9.846439,-0.000448,-0.000185,0.001335,0.148142,1.044309,2.715100,781.51,40.35,highres
7.914903,35237902387,-0.048322,-0.081841,-9.839256,0.001690,0.000121,0.001030,0.144852,1.045409,2.720989,781.51,40.35,highres
7.928298,35237925680,-0.042336,-0.081841,-9.842849,0.000163,0.000731,-0.000497,0.144852,1.045409,2.720989,781.51,40.35,highres
7.955088,35237944954,-0.041139,-0.090220,-9.856016,-0.000448,0.001953,0.000724,0.144852,1.045409,2.720989,781.51,40.35,highres
7.975695,35237962246,-0.042336,-0.075856,-9.840454,0.000163,0.000121,0.000419,0.144852,1.045409,2.720989,781.51,40.70,highres
7.995485,35237982949,-0.048322,-0.075856,-9.845241,-0.000448,-0.000185,0.000724,0.144852,1.045409,2.720989,781.51,40.70,highres
8.016292,35238002609,-0.044730,-0.080644,-9.838060,0.000163,0.000426,0.001030,0.144152,1.042009,2.714925,781.51,40.70,highres
8.036922,35238024897,-0.051913,-0.063885,-9.845243,0.000468,-0.001101,0.000724,0.144152,1.042009,2.714925,781.51,40.70,highres
8.054780,35238042521,-0.051913,-0.077053,-9.852425,0.000163,-0.000185,0.000724,0.144889,1.046224,2.719817,781.51,40.70,highres
8.076481,35238063080,-0.045927,-0.080644,-9.848833,-0.000143,0.000121,0.001030,0.144889,1.046224,2.719817,781.51,40.70,highres
8.095289,35238085180,-0.053110,-0.068673,-9.844045,-0.000448,-0.000185,-0.000192,0.144889,1.046224,2.719817,781.51,40.70,highres
8.116332,35238105223,-0.049519,-0.086629,-9.840454,-0.000448,-0.001407,-0.000192,0.144889,1.046224,2.719817,781.51,40.70,highres
8.135109,35238123274,-0.042336,-0.074658,-9.848833,-0.000754,0.002259,0.001030,0.144889,1.046224,2.719817,781.50,40.70,highres
8.157216,35238145358,-0.045927,-0.080644,-9.846438,-0.000448,0.001037,-0.000192,0.148220,1.042168,2.721064,781.50,40.70,highres
8.175895,35238162663,-0.039942,-0.078250,-9.838059,-0.000143,-0.000185,0.000113,0.148220,1.042168,2.721064,781.50,40.70,highres
8.195508,35238188354,-0.038745,-0.083038,-9.839256,-0.000143,0.000426,0.000113,0.140970,1.044767,2.722851,781.50,40.70,highres
8.214767,35238202873,-0.055504,-0.079447,-9.848833,0.001995,-0.000185,-0.000192,0.140970,1.044767,2.722851,781.49,40.70,highres
8.235591,35238225309,-0.041139,-0.084235,-9.848833,0.000163,0.000731,0.000113,0.140970,1.044767,2.722851,781.49,40.70,highres
8.258255,35238243460,-0.054307,-0.078250,-9.847636,0.000773,0.000121,0.001335,0.140970,1.044767,2.722851,781.49,40.70,highres
8.279003,35238265056,-0.059095,-0.080644,-9.851227,-0.000143,0.000731,0.000724,0.140970,1.044767,2.722851,781.49,40.70,highres
8.279003,35238282965,-0.033957,-0.080644,-9.841649,0.000468,0.001648,0.000113,0.143513,1.046728,2.717769,781.50,40.70,highres
8.279003,35238303010,-0.051913,-0.072264,-9.852426,-0.000143,0.000426,-0.000803,0.143513,1.046728,2.717769,781.50,40.70,highres
8.336285,35238325269,-0.054307,-0.071067,-9.839256,-0.000448,-0.000796,-0.000192,0.141490,1.040856,2.718623,781.50,40.70,highres
8.355849,35238342833,-0.045927,-0.072264,-9.835666,0.001079,0.001648,0.001030,0.141490,1.040856,2.718623,781.50,40.70,highres
8.377180,35238363003,-0.038745,-0.066279,-9.844045,-0.000754,0.001037,-0.000498,0.141490,1.040856,2.718623,781.51,40.70,highres
8.396598,35238381853,-0.048322,-0.077053,-9.860804,-0.000448,0.001648,0.000419,0.141490,1.040856,2.718623,781.51,40.70,highres
8.414935,35238403023,-0.037548,-0.071067,-9.848833,-0.000143,0.001648,-0.001108,0.141490,1.040856,2.718623,781.51,40.70,highres
8.436593,35238421523,-0.036351,-0.068673,-9.847635,0.000163,0.001037,0.000419,0.148021,1.042057,2.715993,781.51,40.70,highres
8.455298,35238438285,-0.045927,-0.078250,-9.842847,0.000773,0.001342,-0.000497,0.148021,1.042057,2.715993,781.51,40.70,highres
8.476280,35238458507,-0.043533,-0.074658,-9.841651,0.001079,0.000426,0.000113,0.137488,1.052221,2.716975,781.51,40.70,highres
8.496621,35238478087,-0.055504,-0.075856,-9.857212,-0.000143,0.000426,0.001030,0.137488,1.052221,2.716975,781.51,40.70,highres
8.516498,35238499898,-0.057898,-0.080644,-9.850029,0.001079,-0.000185,0.000724,0.137488,1.052221,2.716975,781.51,40.70,highres
8.536335,35238518530,-0.041139,-0.078250,-9.841650,-0.000448,0.001953,-0.001108,0.137488,1.052221,2.716975,781.50,40.70,highres
8.556085,35238533750,-0.042336,-0.073461,-9.839256,-0.000448,0.000426,0.001030,0.137488,1.052221,2.716975,781.50,40.70,highres
8.575868,35238555597,-0.045927,-0.084235,-9.846439,-0.000754,-0.000490,0.001030,0.144810,1.036906,2.717643,781.50,40.70,highres
8.596007,35238578444,-0.043533,-0.063885,-9.840454,0.000163,0.000731,-0.000192,0.144810,1.036906,2.717643,781.50,40.70,highres
8.615419,35238598431,-0.048322,-0.069870,-9.851227,-0.000143,0.000426,-0.000497,0.148244,1.044887,2.713987,781.50,40.70,highres
8.636061,35238619613,-0.032760,-0.073461,-9.838059,0.001079,0.000732,0.001030,0.148244,1.044887,2.713987,781.50,40.70,highres
8.656786,35238635787,-0.041139,-0.084235,-9.847635,0.000468,0.001342,0.001946,0.148244,1.044887,2.713987,781.50,40.70,highres
8.676126,35238658860,-0.039942,-0.072264,-9.850031,-0.001365,0.000426,0.000724,0.148244,1.044887,2.713987,781.50,40.70,highres
8.696503,35238675577,-0.047125,-0.068673,-9.852425,0.000773,0.001342,0.000113,0.148244,1.044887,2.713987,781.50,40.70,highres
8.714653,35238699268,-0.060292,-0.086629,-9.848835,-0.000143,-0.000796,-0.000192,0.146194,1.044611,2.720720,781.50,40.70,highres
8.734725,35238718534,-0.038745,-0.077053,-9.844045,-0.000754,0.000426,-0.000803,0.146194,1.044611,2.720720,781.50,40.70,highres
8.756204,35238741146,-0.044730,-0.079447,-9.850031,-0.000448,-0.000185,0.000419,0.145901,1.037131,2.717299,781.50,40.70,highres
8.775263,35238755462,-0.051917,-0.074655,-9.860676,0.000161,-0.000796,0.000112,0.145901,1.037131,2.717299,781.51,40.70,highres
8.797137,35238776607,-0.048326,-0.081838,-9.847507,-0.000755,-0.001101,0.000112,0.145901,1.037131,2.717299,781.51,40.70,highres
8.814718,35238795830,-0.049523,-0.092611,-9.845114,0.000161,-0.000796,0.000418,0.145901,1.037131,2.717299,781.51,40.70,highres
8.835839,35238819182,-0.041144,-0.077049,-9.851099,-0.000755,0.000121,0.001029,0.145901,1.037131,2.717299,781.51,40.70,highres
8.855523,35238836112,-0.055508,-0.071064,-9.839127,-0.001671,-0.001101,0.001029,0.144297,1.044394,2.716424,781.50,40.70,highres
8.875188,35238858984,-0.048326,-0.085429,-9.837932,-0.000755,0.000426,-0.000193,0.144297,1.044394,2.716424,781.50,40.70,highres
8.896895,35238878499,-0.047129,-0.072261,-9.842720,0.001383,0.000426,0.000418,0.149875,1.046152,2.716138,781.50,40.70,highres
8.914937,35238903389,-0.044735,-0.080641,-9.846311,-0.000475,0.000318,0.000524,0.149875,1.046152,2.716138,781.50,40.70,highres
8.936065,35238919204,-0.042341,-0.077049,-9.851099,-0.000450,-0.000185,-0.000193,0.149875,1.046152,2.716138,781.51,40.70,highres
8.955148,35238942062,-0.048326,-0.068670,-9.845114,-0.000144,-0.000796,-0.000193,0.149875,1.046152,2.716138,781.51,40.70,highres
8.976048,35238961461,-0.050720,-0.078246,-9.851100,0.001383,0.000426,0.000112,0.149875,1.046152,2.716138,781.51,40.70,highres
8.997205,35238986111,-0.055508,-0.087823,-9.851099,0.000161,0.000732,0.001334,0.140138,1.041759,2.716745,781.51,40.70,highres
9.009456,35239004868,-0.044735,-0.073458,-9.854691,-0.000144,-0.001406,0.001639,0.140138,1.041759,2.716745,781.50,40.70,highres
9.036958,35239024667,-0.035159,-0.069867,-9.829553,-0.000144,0.000732,0.000723,0.148590,1.050004,2.721695,781.50,40.70,highres
9.055485,35239041797,-0.037553,-0.078246,-9.845114,-0.000449,-0.000185,-0.000193,0.148590,1.050004,2.721695,781.50,40.70,highres
9.076226,35239066286,-0.047129,-0.081838,-9.845115,-0.000450,0.000121,0.000418,0.148590,1.050004,2.721695,781.50,40.70,highres
9.096583,35239085173,-0.049523,-0.085429,-9.842719,0.000161,-0.000490,0.000723,0.148590,1.050004,2.721695,781.51,40.70,highres
9.116119,35239104160,-0.051917,-0.068670,-9.847508,0.000161,0.000426,0.001029,0.148590,1.050004,2.721695,781.51,40.70,highres
9.135808,35239119094,-0.056705,-0.071064,-9.843917,-0.000144,-0.000185,-0.000499,0.151796,1.045935,2.716745,781.51,40.70,highres
9.156218,35239141343,-0.045932,-0.084232,-9.841524,0.001078,0.001037,0.001334,0.151796,1.045935,2.716745,781.51,40.70,highres
9.179138,35239163724,-0.043538,-0.075852,-9.848705,-0.000755,-0.000490,0.000723,0.143938,1.043408,2.717089,781.50,40.70,highres
9.196733,35239182092,-0.050720,-0.073458,-9.836734,-0.000450,-0.000796,0.000723,0.143938,1.043408,2.717089,781.50,40.70,highres
9.216060,35239198830,-0.054311,-0.077049,-9.840325,0.000161,0.000426,0.000418,0.143938,1.043408,2.717089,781.50,40.70,highres
9.236737,35239219287,-0.038750,-0.079443,-9.847508,0.000161,0.000426,0.000112,0.143938,1.043408,2.717089,781.50,40.70,highres
9.255260,35239237772,-0.057903,-0.077049,-9.852297,0.000467,0.000426,0.000723,0.143938,1.043408,2.717089,781.51,40.70,highres
9.277836,35239258822,-0.047129,-0.083035,-9.837931,-0.000144,0.000426,0.001029,0.148702,1.040680,2.714225,781.51,40.70,highres
9.279657,35239279318,-0.048326,-0.077049,-9.840325,0.001383,-0.000796,0.001334,0.148702,1.040680,2.714225,781.51,40.70,highres
9.279657,35239296561,-0.045932,-0.085429,-9.839129,-0.000144,-0.001712,-0.000804,0.149259,1.042568,2.712523,781.51,40.70,highres
9.335458,35239323631,-0.035159,-0.065079,-9.840327,0.000161,-0.000490,-0.000804,0.149259,1.042568,2.712523,781.51,40.70,highres
9.355562,35239343402,-0.042341,-0.077049,-9.846312,0.000772,0.000426,0.001334,0.149259,1.042568,2.712523,781.51,40.70,highres
9.375469,35239358506,-0.045932,-0.079443,-9.843917,-0.000450,0.000426,0.000723,0.149259,1.042568,2.712523,781.51,40.70,highres
9.394951,35239383719,-0.056705,-0.087823,-9.845114,0.000161,0.000121,0.000112,0.149259,1.042568,2.712523,781.51,40.70,highres
9.415710,35239401360,-0.057903,-0.077049,-9.840325,-0.000450,0.001648,0.000418,0.143622,1.046113,2.716291,781.51,40.70,highres
9.435742,35239418923,-0.043538,-0.073458,-9.843917,0.000772,-0.000490,0.000723,0.143622,1.046113,2.716291,781.51,40.70,highres
9.456097,35239441024,-0.057903,-0.079443,-9.855886,-0.000144,-0.000796,0.001029,0.151467,1.039826,2.718803,781.51,40.70,highres
9.475963,35239462493,-0.049523,-0.075852,-9.841522,-0.001060,-0.000796,-0.000193,0.151467,1.039826,2.718803,781.51,40.70,highres
9.496133,35239482700,-0.045932,-0.080641,-9.842721,0.000467,0.000121,-0.000193,0.151467,1.039826,2.718803,781.51,40.70,highres
9.516169,35239502296,-0.057903,-0.074655,-9.852297,-0.001060,0.000426,0.000418,0.151467,1.039826,2.718803,781.51,40.70,highres
9.536189,35239516967,-0.050720,-0.075852,-9.846312,-0.000450,0.000426,0.000112,0.151467,1.039826,2.718803,781.51,40.70,highres
9.556002,35239539582,-0.041144,-0.083035,-9.842720,0.000467,0.000732,0.001639,0.134801,1.045423,2.718630,781.51,40.70,highres
9.577356,35239561488,-0.045932,-0.084232,-9.848705,-0.000144,0.000426,-0.000193,0.134801,1.045423,2.718630,781.50,40.70,highres
9.595741,35239580231,-0.035159,-0.090217,-9.855887,0.000772,0.000426,-0.000499,0.133844,1.055563,2.720541,781.50,40.70,highres
9.615908,35239599049,-0.053114,-0.073458,-9.843917,0.000467,0.000121,0.000418,0.133844,1.055563,2.720541,781.50,40.70,highres
9.636375,35239621025,-0.035159,-0.072261,-9.847507,0.001078,0.001037,0.001029,0.133844,1.055563,2.720541,781.50,40.70,highres
9.655868,35239644140,-0.051917,-0.068670,-9.846312,0.000723,0.000224,-0.000243,0.133844,1.055563,2.720541,781.50,40.70,highres
9.678003,35239664256,-0.045932,-0.075852,-9.843916,-0.000450,0.000732,0.000112,0.133844,1.055563,2.720541,781.50,40.70,highres
9.695317,35239681907,-0.055508,-0.087823,-9.836735,0.000467,0.000426,0.000418,0.136296,1.052862,2.717850,781.50,40.70,highres
9.715870,35239702920,-0.048326,-0.083035,-9.847507,0.000161,-0.000490,0.001029,0.136296,1.052862,2.717850,781.50,40.70,highres
9.735281,35239724166,-0.053114,-0.073458,-9.834341,-0.000144,0.000426,0.000723,0.134421,1.045653,2.717669,781.51,40.70,highres
9.755792,35239741752,-0.045932,-0.083035,-9.835537,-0.001060,-0.001101,0.000723,0.134421,1.045653,2.717669,781.51,40.70,highres
9.775943,35239764087,-0.039947,-0.079443,-9.847507,0.001078,0.000732,-0.000193,0.134421,1.045653,2.717669,781.51,40.70,highres
9.794703,35239783995,-0.042340,-0.079445,-9.843943,-0.000148,-0.000202,0.000413,0.134421,1.045653,2.717669,781.51,40.70,highres
9.815455,35239804243,-0.053114,-0.080642,-9.842745,0.000463,0.001020,0.000107,0.134421,1.045653,2.717669,781.51,40.70,highres
9.835614,35239824586,-0.053114,-0.073460,-9.840350,0.000769,0.000715,0.001329,0.138122,1.049783,2.716930,781.51,40.70,highres
9.856646,35239844374,-0.057902,-0.090218,-9.845139,-0.000453,0.000409,0.000107,0.138122,1.049783,2.716930,781.51,40.70,highres
9.876242,35239864180,-0.050720,-0.079445,-9.845139,0.001074,-0.000202,0.000718,0.141433,1.054073,2.714351,781.51,40.70,highres
9.895569,35239879043,-0.041143,-0.080642,-9.846335,0.000158,0.000715,0.000413,0.141433,1.054073,2.714351,781.51,40.70,highres
9.915542,35239902579,-0.044734,-0.074657,-9.842745,-0.000148,-0.000812,-0.000809,0.141433,1.054073,2.714351,781.51,40.70,highres
9.936295,35239919953,-0.055508,-0.075854,-9.848730,0.000463,0.000104,0.001329,0.141433,1.054073,2.714351,781.51,40.70,highres
9.956164,35239941933,-0.035158,-0.085430,-9.840351,-0.000148,-0.000202,-0.000504,0.141433,1.054073,2.714351,781.51,40.70,highres
9.976355,35239961941,-0.045931,-0.087824,-9.836760,0.000463,0.000104,-0.000504,0.133948,1.051369,2.724749,781.51,40.70,highres
9.995039,35239981904,-0.042340,-0.079445,-9.840350,0.000463,-0.000507,-0.000198,0.133948,1.051369,2.724749,781.51,40.70,highres
10.014928,35239999465,-0.042340,-0.084233,-9.840350,0.001074,0.001936,-0.000198,0.138079,1.042287,2.716094,781.51,40.70,highres
10.036332,35240022889,-0.039946,-0.081839,-9.846336,-0.000453,0.000104,-0.000198,0.138079,1.042287,2.716094,781.51,40.70,highres
10.056745,35240039836,-0.049523,-0.080642,-9.843942,-0.000453,-0.000507,0.001024,0.138079,1.042287,2.716094,781.51,40.70,highres
10.076914,35240056991,-0.047128,-0.084233,-9.845139,-0.000453,-0.000507,-0.000198,0.138079,1.042287,2.716094,781.51,40.70,highres
10.098312,35240079582,-0.042340,-0.079445,-9.841546,0.000769,0.001020,-0.000198,0.138079,1.042287,2.716094,781.51,40.70,highres
10.115298,35240100547,-0.042340,-0.083036,-9.845140,-0.001064,-0.000507,0.000107,0.145759,1.048299,2.717270,781.51,40.70,highres
10.135739,35240122199,-0.035158,-0.084233,-9.847534,0.000158,-0.000507,0.000413,0.145759,1.048299,2.717270,781.51,40.70,highres
10.154728,35240137100,-0.033961,-0.069868,-9.854715,0.000158,-0.001729,-0.000504,0.140197,1.046036,2.713069,781.51,40.70,highres
10.177152,35240156981,-0.039946,-0.085430,-9.839153,0.000463,0.001020,0.000107,0.140197,1.046036,2.713069,781.51,40.70,highres
10.196503,35240177468,-0.050720,-0.079445,-9.837956,0.000158,0.000409,-0.000504,0.140197,1.046036,2.713069,781.51,40.70,highres
10.217109,35240201368,-0.051917,-0.078248,-9.845140,-0.000759,-0.000507,0.000413,0.140197,1.046036,2.713069,781.51,40.70,highres
10.235638,35240214691,-0.063887,-0.086627,-9.840350,-0.000453,0.000715,-0.000198,0.140197,1.046036,2.713069,781.51,40.70,highres
10.256222,35240234635,-0.038749,-0.074657,-9.841547,-0.000453,-0.001118,0.000107,0.140885,1.052346,2.716058,781.51,40.70,highres
10.276368,35240255261,-0.047128,-0.083036,-9.842745,0.000463,0.001020,0.000413,0.140885,1.052346,2.716058,781.51,40.70,highres
10.287389,35240285101,-0.037552,-0.075854,-9.845139,0.000769,-0.001423,0.000107,0.131689,1.045097,2.717736,781.51,40.70,highres
10.287389,35240305027,-0.050720,-0.071065,-9.834367,-0.000759,0.000104,-0.000198,0.131689,1.045097,2.717736,781.51,40.70,highres
10.335559,35240325436,-0.054311,-0.075854,-9.847532,-0.000453,0.001020,0.000718,0.131689,1.045097,2.717736,781.51,40.70,highres
10.355282,35240345954,-0.049523,-0.091415,-9.837955,-0.000148,-0.000812,-0.000504,0.131689,1.045097,2.717736,781.51,40.70,highres
10.376252,35240365661,-0.059099,-0.084233,-9.846336,0.000158,0.000409,0.001940,0.131689,1.045097,2.717736,781.51,40.70,highres
10.395063,35240384868,-0.057902,-0.086627,-9.842743,0.000463,-0.000202,0.000718,0.138589,1.047269,2.715794,781.51,40.70,highres
10.415646,35240402976,-0.053114,-0.080642,-9.846336,-0.000148,-0.000507,0.000718,0.138589,1.047269,2.715794,781.51,40.70,highres
10.435999,35240422644,-0.049523,-0.079445,-9.841547,0.000463,0.001936,0.000413,0.134895,1.040940,2.713420,781.51,40.70,highres
10.455168,35240442586,-0.053114,-0.091415,-9.845139,-0.000148,0.000409,0.000718,0.134895,1.040940,2.713420,781.51,40.70,highres
10.476564,35240461194,-0.032764,-0.072263,-9.834366,-0.000453,0.000715,-0.000809,0.134895,1.040940,2.713420,781.51,40.70,highres
10.496039,35240478355,-0.044734,-0.080642,-9.840350,0.000463,0.000104,-0.000809,0.134895,1.040940,2.713420,781.51,40.70,highres
10.515350,35240501393,-0.045931,-0.080642,-9.849925,0.000463,0.000409,0.000718,0.134895,1.040940,2.713420,781.51,40.70,highres
10.535740,35240522313,-0.053114,-0.071065,-9.845139,-0.000148,0.000409,-0.000809,0.146488,1.042995,2.710241,781.50,40.70,highres
10.556409,35240541052,-0.041553,-0.082774,-9.835562,0.000158,0.000715,-0.000198,0.146488,1.042995,2.710241,781.50,40.70,highres
10.577048,35240558556,-0.045931,-0.074657,-9.835563,0.000769,-0.000202,0.001024,0.146238,1.044018,2.710324,781.50,40.70,highres
10.595611,35240582636,-0.042340,-0.081839,-9.839153,0.000158,-0.001423,0.000413,0.146238,1.044018,2.710324,781.50,40.70,highres
10.617141,35240598859,-0.043537,-0.079445,-9.846336,0.001074,0.001020,-0.000198,0.146238,1.044018,2.710324,781.51,40.70,highres
10.635465,35240621133,-0.039946,-0.073460,-9.857109,-0.000148,0.000409,0.000107,0.146238,1.044018,2.710324,781.51,40.70,highres
10.658115,35240641436,-0.050720,-0.078248,-9.857109,-0.000453,0.000715,0.000718,0.146238,1.044018,2.710324,781.51,40.70,highres
10.679723,35240658653,-0.042340,-0.067474,-9.842745,0.000769,0.000104,-0.000198,0.147610,1.039930,2.718377,781.51,40.70,highres
10.694965,35240677947,-0.044734,-0.072263,-9.846336,0.000769,0.001020,0.000718,0.147610,1.039930,2.718377,781.51,40.70,highres
10.715916,35240695158,-0.050720,-0.077051,-9.852322,0.000463,0.000104,0.000107,0.140312,1.040378,2.719612,781.51,40.70,highres
10.736314,35240715313,-0.050720,-0.074657,-9.843942,-0.000453,-0.000202,0.000413,0.140312,1.040378,2.719612,781.51,40.70,highres
10.754387,35240732766,-0.037552,-0.072263,-9.836760,-0.000453,0.000104,-0.000198,0.140312,1.040378,2.719612,781.51,40.70,highres
10.775593,35240762785,-0.054311,-0.083036,-9.841547,-0.000759,-0.001118,0.000107,0.140312,1.040378,2.719612,781.52,40.70,highres
10.796026,35240782644,-0.051918,-0.081838,-9.844050,0.000464,-0.000215,-0.000202,0.140312,1.040378,2.719612,781.52,40.70,highres
10.816409,35240801103,-0.048327,-0.069868,-9.833277,-0.000452,0.000396,-0.000202,0.138899,1.044400,2.716906,781.52,40.70,highres
10.836114,35240821287,-0.041145,-0.075853,-9.838064,-0.000147,0.000701,0.000409,0.138899,1.044400,2.716906,781.52,40.70,highres
10.857359,35240845921,-0.047130,-0.077050,-9.834475,0.000770,0.001618,0.000409,0.143066,1.040897,2.722730,781.52,40.70,highres
10.876175,35240862939,-0.038751,-0.084233,-9.839262,0.000464,0.001312,0.001631,0.143066,1.040897,2.722730,781.52,40.70,highres
10.895474,35240881755,-0.056706,-0.080641,-9.854824,-0.000452,-0.000215,0.001020,0.143066,1.040897,2.722730,781.52,40.70,highres
10.916308,35240901615,-0.042342,-0.079444,-9.847642,0.000159,0.000396,0.000104,0.143066,1.040897,2.722730,781.52,40.70,highres
10.935665,35240927050,-0.045933,-0.087824,-9.844050,0.000464,0.001312,-0.000202,0.143066,1.040897,2.722730,781.52,40.70,highres
10.958730,35240937940,-0.049524,-0.077050,-9.838064,-0.000147,0.001007,-0.000202,0.145838,1.044320,2.716626,781.52,40.70,highres
10.977844,35240962589,-0.049524,-0.080641,-9.851233,0.000464,0.000396,0.000104,0.145838,1.044320,2.716626,781.52,40.70,highres
10.996237,35240981785,-0.056706,-0.086627,-9.845247,0.000464,0.001618,0.000104,0.147836,1.045337,2.707698,781.52,40.70,highres
11.015235,35240995655,-0.045933,-0.077050,-9.836868,-0.000147,0.000090,0.001325,0.147836,1.045337,2.707698,781.52,40.70,highres
11.036404,35241015202,-0.043539,-0.085430,-9.847641,-0.000452,0.000701,0.000104,0.147836,1.045337,2.707698,781.52,40.70,highres
11.056630,35241038161,-0.049524,-0.089021,-9.853626,-0.000147,0.000396,0.000409,0.147836,1.045337,2.707698,781.52,40.70,highres
11.075153,35241052701,-0.044736,-0.079444,-9.854824,0.000159,0.000701,0.000409,0.147836,1.045337,2.707698,781.52,40.70,highres
11.097438,35241077929,-0.041145,-0.071065,-9.845247,-0.000452,0.001007,0.000104,0.147957,1.040587,2.718500,781.52,40.70,highres
11.116663,35241103320,-0.044736,-0.074656,-9.850036,-0.000147,-0.000520,-0.000202,0.147957,1.040587,2.718500,781.52,40.70,highres
11.136224,35241122377,-0.036357,-0.068671,-9.850037,0.000159,-0.000215,0.001020,0.144486,1.039887,2.713668,781.52,40.70,highres
11.157376,35241143132,-0.026780,-0.071065,-9.840459,0.000159,-0.001131,-0.000813,0.144486,1.039887,2.713668,781.52,40.70,highres
11.175589,35241166599,-0.042342,-0.081838,-9.846445,0.001686,-0.000215,0.001325,0.144486,1.039887,2.713668,781.51,40.70,highres
11.196942,35241184245,-0.048327,-0.067474,-9.850036,0.001075,0.001007,-0.000202,0.144486,1.039887,2.713668,781.51,40.70,highres
11.217790,35241203634,-0.033963,-0.077050,-9.845247,-0.000147,-0.000826,-0.000202,0.144486,1.039887,2.713668,781.51,40.70,highres
11.236297,35241226253,-0.049524,-0.069868,-9.856021,-0.000452,-0.000215,0.000409,0.150633,1.044954,2.713086,781.51,40.70,highres
11.255468,35241245694,-0.044736,-0.069868,-9.844050,-0.000452,0.001312,-0.000507,0.150633,1.044954,2.713086,781.51,40.70,highres
11.275134,35241263191,-0.047130,-0.073459,-9.844050,-0.001063,0.000396,0.000714,0.137460,1.057734,2.723170,781.51,40.70,highres
11.287770,35241283281,-0.049524,-0.083035,-9.846445,-0.000147,0.000090,-0.000507,0.137460,1.057734,2.723170,781.51,40.70,highres
11.287770,35241307775,-0.021992,-0.071065,-9.841656,-0.000758,-0.000215,-0.000813,0.137460,1.057734,2.723170,781.51,40.70,highres
11.336465,35241323781,-0.061495,-0.087824,-9.835671,-0.000147,0.001007,0.000104,0.137460,1.057734,2.723170,781.51,40.70,highres
11.356598,35241344787,-0.043539,-0.075853,-9.846445,-0.000758,0.001312,0.000714,0.137460,1.057734,2.723170,781.51,40.70,highres
11.375362,35241363252,-0.043539,-0.081838,-9.839262,-0.000452,-0.000215,-0.000202,0.144867,1.046348,2.715919,781.51,40.70,highres
11.395664,35241383602,-0.026780,-0.091415,-9.841657,0.000770,-0.001131,0.000714,0.144867,1.046348,2.715919,781.51,40.70,highres
11.415149,35241403219,-0.062692,-0.074656,-9.840460,0.000159,-0.000826,0.001325,0.142920,1.039828,2.711153,781.51,40.70,highres
11.436580,35241424184,-0.043539,-0.080641,-9.846445,-0.001063,-0.000215,0.001020,0.142920,1.039828,2.711153,781.51,40.70,highres
11.455596,35241443638,-0.043539,-0.089021,-9.847642,0.000159,0.001312,0.001631,0.142920,1.039828,2.711153,781.51,40.70,highres
11.476653,35241463625,-0.048327,-0.080641,-9.847642,0.000159,0.000396,0.000409,0.142920,1.039828,2.711153,781.51,40.70,highres
11.495445,35241483617,-0.044736,-0.068671,-9.842854,0.000159,-0.000826,-0.000202,0.142920,1.039828,2.711153,781.51,40.70,highres
11.516849,35241503793,-0.037554,-0.068671,-9.840459,0.000464,0.001007,0.000714,0.141456,1.040736,2.715036,781.51,40.70,highres
11.536746,35241523797,-0.043539,-0.075853,-9.845247,-0.001063,-0.001437,0.001020,0.141456,1.040736,2.715036,781.51,40.70,highres
11.556069,35241538860,-0.043539,-0.078247,-9.846444,0.000159,-0.000520,-0.000202,0.145038,1.049480,2.715131,781.51,40.70,highres
11.577373,35241561512,-0.048327,-0.071065,-9.844050,0.000770,0.001007,-0.000202,0.145038,1.049480,2.715131,781.51,40.70,highres
11.596117,35241579297,-0.047130,-0.073459,-9.847641,0.000159,0.000090,0.001020,0.145038,1.049480,2.715131,781.51,40.70,highres
11.615122,35241604120,-0.051918,-0.083035,-9.850037,0.000770,-0.000215,0.001020,0.145038,1.049480,2.715131,781.51,40.70,highres
11.636886,35241621986,-0.050721,-0.086627,-9.835670,0.000464,0.001618,-0.000202,0.145038,1.049480,2.715131,781.51,40.70,highres
11.656288,35241639448,-0.049524,-0.086627,-9.846444,-0.000452,-0.000215,-0.001118,0.147385,1.044237,2.717623,781.51,40.70,highres
11.677394,35241659293,-0.042342,-0.073459,-9.846445,-0.000452,0.000090,-0.000202,0.147385,1.044237,2.717623,781.51,40.70,highres
11.696091,35241682281,-0.055509,-0.079444,-9.846444,0.000770,0.001312,0.000714,0.144246,1.049466,2.712480,781.51,40.70,highres
11.715844,35241702404,-0.048327,-0.072262,-9.841656,-0.000758,-0.000215,0.001325,0.144246,1.049466,2.712480,781.51,40.70,highres
11.731088,35241719020,-0.035160,-0.079444,-9.845247,-0.000452,-0.000215,0.000714,0.144246,1.049466,2.712480,781.52,40.70,highres
11.755845,35241741640,-0.055509,-0.068671,-9.841656,-0.000147,-0.000215,0.000104,0.144246,1.049466,2.712480,781.52,40.70,highres
11.776798,35241763769,-0.050721,-0.095006,-9.839262,0.000464,-0.000520,0.000714,0.144246,1.049466,2.712480,781.52,40.70,highres
11.795300,35241776181,-0.043539,-0.083035,-9.836869,0.000159,0.000701,0.001020,0.143782,1.043401,2.716957,781.52,40.70,highres
11.818154,35241793710,-0.050720,-0.083034,-9.844663,-0.000146,0.000691,-0.000208,0.143782,1.043401,2.716957,781.51,40.70,highres
11.836468,35241819293,-0.039947,-0.075851,-9.842268,-0.000757,0.000691,0.000402,0.149908,1.047412,2.710997,781.51,40.70,highres
11.856447,35241837063,-0.051917,-0.078245,-9.849451,-0.000146,0.000691,0.000097,0.149908,1.047412,2.710997,781.51,40.70,highres
11.876122,35241858905,-0.039947,-0.073457,-9.851845,0.000464,0.000691,-0.000819,0.149908,1.047412,2.710997,781.51,40.70,highres
11.895460,35241881786,-0.045932,-0.078245,-9.842269,0.000770,-0.001447,-0.000208,0.149908,1.047412,2.710997,781.51,40.35,highres
11.917098,35241896352,-0.044735,-0.079442,-9.854239,-0.001063,0.000385,0.001013,0.149908,1.047412,2.710997,781.51,40.35,highres
11.935964,35241920093,-0.043538,-0.085428,-9.841071,0.000159,0.000080,0.000097,0.141349,1.040824,2.720640,781.51,40.35,highres
11.955405,35241939094,-0.043538,-0.087822,-9.842268,0.000159,0.000996,-0.000208,0.141349,1.040824,2.720640,781.51,40.35,highres
11.976013,35241957267,-0.071070,-0.135704,-9.837481,0.001992,0.000080,0.000097,0.141630,1.043689,2.715915,781.51,40.00,highres
11.994813,35241977280,-0.043538,-0.059093,-9.841072,0.001686,-0.001447,0.000097,0.141630,1.043689,2.715915,781.51,40.00,highres
12.015667,35241999287,-0.024385,-0.049516,-9.836284,-0.001674,0.000691,0.000708,0.141630,1.043689,2.715915,781.51,40.00,highres
12.035633,35242016565,-0.060297,-0.085428,-9.861422,-0.001063,0.000691,0.000708,0.141630,1.043689,2.715915,781.51,40.00,highres
12.055832,35242034189,-0.047129,-0.069866,-9.836284,-0.000452,0.001302,-0.000514,0.141630,1.043689,2.715915,781.50,40.00,highres
12.076491,35242056890,-0.047129,-0.072260,-9.847057,-0.001063,0.000080,0.000402,0.145201,1.044665,2.711330,781.50,40.00,highres
12.095490,35242077115,-0.054311,-0.077048,-9.850649,-0.000146,-0.000836,0.000708,0.145201,1.044665,2.711330,781.50,40.00,highres
12.116410,35242097021,-0.049523,-0.089019,-9.841071,-0.000757,-0.000836,-0.000514,0.145859,1.049885,2.718588,781.50,40.00,highres
12.136010,35242119135,-0.043538,-0.067472,-9.848254,0.000159,0.001302,0.001624,0.145859,1.049885,2.718588,781.51,40.00,highres
12.155791,35242133933,-0.054311,-0.079442,-9.847057,0.000159,-0.000226,0.000402,0.145859,1.049885,2.718588,781.51,40.00,highres
12.176418,35242161868,-0.041144,-0.081837,-9.841073,0.001075,0.000385,0.001624,0.145859,1.049885,2.718588,781.51,40.00,highres
12.195801,35242184095,-0.048326,-0.081837,-9.844663,0.000159,-0.000836,0.000708,0.145859,1.049885,2.718588,781.51,40.00,highres
12.216375,35242204217,-0.041144,-0.086625,-9.843465,0.000159,0.000385,0.001319,0.148767,1.047399,2.713352,781.52,40.00,highres
12.236457,35242222954,-0.041144,-0.080640,-9.844663,0.000464,0.000385,-0.000514,0.148767,1.047399,2.713352,781.52,40.00,highres
12.256398,35242242336,-0.047129,-0.087822,-9.849451,0.000464,0.000080,0.000097,0.149274,1.048886,2.718342,781.52,40.00,highres
12.276345,35242260606,-0.044735,-0.081837,-9.836283,-0.000146,-0.000226,0.000097,0.149274,1.048886,2.718342,781.52,40.00,highres
12.295693,35242276835,-0.053114,-0.075851,-9.847057,-0.000146,0.000385,0.000402,0.149274,1.048886,2.718342,781.51,40.00,highres
12.295693,35242294233,-0.047129,-0.078245,-9.850648,-0.000146,0.001302,0.000708,0.149274,1.048886,2.718342,781.51,40.00,highres
12.336433,35242316825,-0.036356,-0.077048,-9.841071,0.000159,0.000691,-0.000514,0.149274,1.048886,2.718342,781.51,40.00,highres
12.356480,35242341889,-0.047129,-0.073457,-9.839874,0.000770,0.000385,-0.000514,0.147397,1.045093,2.712710,781.51,40.00,highres
12.377004,35242368043,-0.048326,-0.074654,-9.853041,-0.002895,-0.000836,-0.000819,0.147397,1.045093,2.712710,781.51,40.00,highres
12.395166,35242386771,-0.050720,-0.085428,-9.866210,-0.000452,0.000385,-0.000514,0.145418,1.042735,2.713611,781.51,40.00,highres
12.416170,35242405182,-0.041144,-0.063881,-9.848253,-0.000452,0.001607,0.001319,0.145418,1.042735,2.713611,781.51,40.00,highres
12.436506,35242421955,-0.033962,-0.084231,-9.845860,0.000770,-0.000226,0.000708,0.145418,1.042735,2.713611,781.51,40.00,highres
12.458117,35242445648,-0.050720,-0.083034,-9.849451,-0.000146,-0.000226,-0.001125,0.145418,1.042735,2.713611,781.52,40.00,highres
12.478405,35242457475,-0.050720,-0.077048,-9.837480,0.000159,0.000385,-0.000514,0.145418,1.042735,2.713611,781.52,40.00,highres
12.494262,35242482586,-0.045932,-0.081837,-9.847058,0.000464,-0.000226,0.001319,0.147069,1.047468,2.712859,781.52,40.00,highres
12.515490,35242501908,-0.049523,-0.074654,-9.843466,0.001075,0.000691,0.000097,0.147069,1.047468,2.712859,781.52,40.00,highres
12.535327,35242524626,-0.055508,-0.079442,-9.845860,0.001075,-0.000836,0.000402,0.139116,1.053054,2.721901,781.53,40.00,highres
12.556251,35242542293,-0.051917,-0.072260,-9.851844,-0.000146,-0.000836,0.000708,0.139116,1.053054,2.721901,781.53,40.00,highres
12.577814,35242564670,-0.055508,-0.066275,-9.839875,-0.000146,0.000691,-0.000514,0.139116,1.053054,2.721901,781.53,40.00,highres
12.595887,35242582491,-0.039947,-0.078245,-9.848253,0.000159,0.000080,0.001624,0.139116,1.053054,2.721901,781.53,40.00,highres
12.616565,35242604604,-0.047129,-0.077048,-9.843466,-0.000146,0.001302,0.001013,0.139116,1.053054,2.721901,781.52,40.00,highres
12.636413,35242625014,-0.037553,-0.085428,-9.845859,-0.000757,-0.000531,-0.000208,0.145610,1.039793,2.720322,781.52,40.00,highres
12.657239,35242645615,-0.045932,-0.072260,-9.842268,-0.000146,-0.000226,-0.000208,0.145610,1.039793,2.720322,781.52,40.00,highres
12.676739,35242664792,-0.039947,-0.067472,-9.851846,-0.000757,-0.000531,-0.000208,0.149418,1.045370,2.712601,781.52,40.00,highres
12.696015,35242684861,-0.049523,-0.072260,-9.843466,0.000159,-0.000226,0.000708,0.149418,1.045370,2.712601,781.52,40.00,highres
12.715991,35242702784,-0.042341,-0.081837,-9.843466,0.000770,0.000385,0.000402,0.149418,1.045370,2.712601,781.52,40.00,highres
12.737774,35242719918,-0.055508,-0.071063,-9.848253,0.000770,0.000080,-0.000208,0.149418,1.045370,2.712601,781.52,40.00,highres
12.757103,35242740483,-0.038750,-0.072260,-9.845860,0.001075,-0.000226,0.000402,0.149418,1.045370,2.712601,781.52,40.00,highres
12.778590,35242762464,-0.051917,-0.072260,-9.837481,-0.000146,0.000080,0.000708,0.145112,1.044545,2.721069,781.52,40.00,highres
12.796365,35242778004,-0.047129,-0.089019,-9.859028,0.000464,-0.000531,-0.000514,0.145112,1.044545,2.721069,781.52,40.00,highres
12.816052,35242800146,-0.053114,-0.081839,-9.861856,0.000156,-0.000236,0.000393,0.141821,1.046437,2.720770,781.52,40.00,highres
12.835905,35242822670,-0.050720,-0.084233,-9.853477,-0.000455,-0.000236,0.000393,0.141821,1.046437,2.720770,781.52,40.00,highres
12.856495,35242843142,-0.038750,-0.098598,-9.840308,0.000461,0.000375,-0.000217,0.141821,1.046437,2.720770,781.52,40.00,highres
12.878287,35242862374,-0.033962,-0.075854,-9.842703,-0.000150,-0.000541,-0.000828,0.141821,1.046437,2.720770,781.52,40.00,highres
12.897045,35242882420,-0.049523,-0.074657,-9.842703,-0.000760,0.000070,0.000393,0.141821,1.046437,2.720770,781.52,40.00,highres
12.918468,35242902707,-0.055508,-0.073460,-9.843900,-0.000455,0.000070,-0.000217,0.145318,1.043861,2.712395,781.52,40.00,highres
12.935959,35242922893,-0.033962,-0.074657,-9.845098,-0.000455,0.000986,0.000699,0.145318,1.043861,2.712395,781.52,40.00,highres
12.955822,35242941583,-0.039947,-0.081839,-9.846294,-0.001982,0.000069,-0.000217,0.142172,1.046519,2.715527,781.52,40.00,highres
12.977915,35242960557,-0.045932,-0.077051,-9.847492,-0.000150,-0.000541,0.000393,0.142172,1.046519,2.715527,781.52,40.00,highres
12.997011,35242981109,-0.032764,-0.080642,-9.835522,-0.000760,-0.001152,-0.000523,0.142172,1.046519,2.715527,781.52,40.00,highres
13.016915,35243001573,-0.050720,-0.083036,-9.841506,0.000461,0.000680,0.000393,0.142172,1.046519,2.715527,781.51,40.00,highres
13.036404,35243021143,-0.051917,-0.074657,-9.845098,-0.000455,-0.000236,-0.000828,0.142172,1.046519,2.715527,781.51,40.00,highres
13.056004,35243040760,-0.044735,-0.077051,-9.848689,0.000461,-0.000847,0.000393,0.142009,1.041492,2.721346,781.51,40.00,highres
13.075912,35243061153,-0.045932,-0.077051,-9.853478,0.000156,0.000375,0.000393,0.142009,1.041492,2.721346,781.51,40.00,highres
13.089492,35243078000,-0.044735,-0.067474,-9.853477,-0.000150,0.000375,0.000088,0.140001,1.049638,2.711248,781.51,40.00,highres
13.117074,35243101368,-0.042341,-0.083036,-9.842701,0.001072,0.000375,-0.000217,0.140001,1.049638,2.711248,781.51,40.00,highres
13.137528,35243120888,-0.045932,-0.086627,-9.837915,-0.000760,-0.000236,-0.000523,0.140001,1.049638,2.711248,781.51,40.00,highres
13.156362,35243141514,-0.057903,-0.074657,-9.839111,0.000156,0.000069,0.000699,0.140001,1.049638,2.711248,781.51,40.00,highres
13.178886,35243162716,-0.039947,-0.077051,-9.845098,-0.000150,0.000986,-0.000523,0.140001,1.049638,2.711248,781.52,40.00,highres
13.195440,35243182909,-0.037553,-0.081839,-9.839112,-0.000455,0.000680,0.000699,0.142549,1.045682,2.720611,781.52,40.00,highres
13.215774,35243200760,-0.054684,-0.076891,-9.846216,-0.001066,0.001597,0.001004,0.142549,1.045682,2.720611,781.52,40.00,highres
13.235457,35243223088,-0.051917,-0.079445,-9.843900,-0.000150,0.000680,-0.000828,0.147933,1.046052,2.715283,781.52,40.00,highres
13.256919,35243241593,-0.048326,-0.085430,-9.847492,-0.000455,0.000375,-0.000828,0.147933,1.046052,2.715283,781.51,40.00,highres
13.277938,35243258219,-0.039947,-0.081839,-9.843901,-0.000455,0.000069,-0.000523,0.147933,1.046052,2.715283,781.51,40.00,highres
13.295826,35243273574,-0.049523,-0.078248,-9.848689,0.000156,0.000070,0.000699,0.147933,1.046052,2.715283,781.51,40.00,highres
13.297719,35243291858,-0.047129,-0.086627,-9.846294,0.001072,-0.000236,0.000699,0.147933,1.046052,2.715283,781.51,40.00,highres
13.338325,35243312856,-0.033962,-0.084233,-9.846294,-0.000455,-0.001763,0.000088,0.148408,1.045710,2.719412,781.51,40.00,highres
13.357586,35243333066,-0.042341,-0.085430,-9.846294,0.000767,0.000375,0.000393,0.148408,1.045710,2.719412,781.51,40.00,highres
13.380116,35243351088,-0.043538,-0.075854,-9.846295,-0.000760,0.000680,0.001310,0.141394,1.039263,2.717782,781.51,40.00,highres
13.396401,35243373212,-0.047129,-0.071066,-9.834324,-0.000150,0.000070,0.000699,0.141394,1.039263,2.717782,781.51,40.00,highres
13.421161,35243402655,-0.043538,-0.079445,-9.851084,-0.000455,0.000375,0.000393,0.141394,1.039263,2.717782,781.51,40.00,highres
13.436285,35243418037,-0.036356,-0.080642,-9.836719,-0.000455,-0.001458,-0.001134,0.141394,1.039263,2.717782,781.51,40.00,highres
13.455667,35243438298,-0.054311,-0.073460,-9.840309,0.000461,0.000375,0.000088,0.141394,1.039263,2.717782,781.51,40.00,highres
13.478406,35243466318,-0.048319,-0.068662,-9.846483,0.000156,-0.001758,0.000087,0.144936,1.044398,2.719182,781.51,40.00,highres
13.496312,35243484276,-0.047122,-0.091406,-9.844090,-0.000150,-0.000536,-0.000218,0.144936,1.044398,2.719182,781.51,40.00,highres
13.516307,35243500273,-0.051910,-0.081829,-9.851273,0.001072,-0.000231,-0.000218,0.147836,1.050364,2.721444,781.51,40.00,highres
13.538052,35243525536,-0.055501,-0.079435,-9.931475,-0.001372,-0.000231,-0.000219,0.147836,1.050364,2.721444,781.51,40.00,highres
13.557439,35243546418,-0.043531,-0.079435,-9.838105,-0.000150,-0.000536,0.001003,0.147836,1.050364,2.721444,781.51,40.00,highres
13.578074,35243563891,-0.036348,-0.078238,-9.806981,-0.001982,-0.000231,-0.000218,0.147836,1.050364,2.721444,781.52,40.00,highres
13.595647,35243582801,-0.044728,-0.081829,-9.827331,0.000766,0.000075,0.000392,0.147836,1.050364,2.721444,781.52,40.00,highres
13.615846,35243596341,-0.037545,-0.087815,-9.846485,0.000767,-0.000231,0.000087,0.142636,1.046939,2.722717,781.52,40.00,highres
13.629721,35243616277,-0.045925,-0.075844,-9.847682,-0.001677,-0.000842,-0.001440,0.142636,1.046939,2.722717,781.52,40.00,highres
13.655749,35243638266,-0.042333,-0.073450,-9.850076,-0.001372,0.000380,0.001614,0.144009,1.037386,2.720435,781.51,40.00,highres
13.677925,35243655729,-0.043531,-0.080632,-9.845288,0.000767,0.000685,0.001003,0.144009,1.037386,2.720435,781.51,40.00,highres
13.695751,35243683531,-0.059092,-0.074647,-9.834515,-0.000796,0.000728,0.000827,0.144009,1.037386,2.720435,781.51,40.00,highres
13.716738,35243703954,-0.053107,-0.085421,-9.839302,-0.000150,-0.000842,-0.000524,0.144009,1.037386,2.720435,781.51,40.00,highres
13.736898,35243723216,-0.054304,-0.081829,-9.841696,-0.000455,0.000685,0.000698,0.144009,1.037386,2.720435,781.50,40.00,highres
13.755402,35243743392,-0.036348,-0.065071,-9.832120,0.000766,0.000075,0.000392,0.146459,1.041816,2.715304,781.50,40.00,highres
13.775783,35243766598,-0.047122,-0.084224,-9.846485,0.000461,-0.000231,0.000087,0.146459,1.041816,2.715304,781.50,40.00,highres
13.795507,35243783519,-0.039939,-0.081829,-9.851273,0.000156,0.000380,-0.000524,0.147163,1.044246,2.729305,781.50,40.00,highres
13.817156,35243803502,-0.038742,-0.092603,-9.851273,0.001072,0.000685,-0.000218,0.147163,1.044246,2.729305,781.50,40.00,highres
13.836492,35243821584,-0.053107,-0.079435,-9.844091,0.000156,0.000991,-0.000524,0.147163,1.044246,2.729305,781.50,40.00,highres
13.856558,35243841172,-0.043530,-0.075844,-9.848877,-0.000455,0.000075,0.000392,0.147163,1.044246,2.729305,781.50,40.00,highres
13.877038,35243862327,-0.051910,-0.073450,-9.834514,0.000156,-0.000231,0.000087,0.147163,1.044246,2.729305,781.50,40.00,highres
13.896376,35243881759,-0.043530,-0.086618,-9.845287,0.000156,-0.000536,-0.000218,0.135403,1.052923,2.721838,781.50,39.85,highres
13.917569,35243902668,-0.048319,-0.078238,-9.845287,-0.000455,-0.000536,0.000392,0.135403,1.052923,2.721838,781.50,39.85,highres
13.938715,35243918868,-0.036348,-0.078238,-9.835711,-0.000455,0.000380,0.000698,0.137711,1.048573,2.722777,781.50,39.85,highres
13.958854,35243941160,-0.051910,-0.085421,-9.845287,0.000461,-0.001147,-0.000829,0.137711,1.048573,2.722777,781.50,39.85,highres
13.977587,35243961953,-0.048319,-0.075844,-9.833316,-0.000761,-0.000231,0.001003,0.137711,1.048573,2.722777,781.50,39.70,highres
13.996323,35243976067,-0.047122,-0.073450,-9.844090,-0.000761,0.000991,0.000698,0.137711,1.048573,2.722777,781.50,39.70,highres
14.016127,35244002032,-0.047122,-0.085421,-9.844090,-0.000150,-0.000842,0.000392,0.137711,1.048573,2.722777,781.50,39.70,highres
14.029650,35244023027,-0.043530,-0.078238,-9.844090,-0.000150,-0.000231,-0.000829,0.144758,1.044603,2.714437,781.50,39.70,highres
14.054355,35244041222,-0.047122,-0.074647,-9.847682,-0.000455,0.000075,0.000087,0.144758,1.044603,2.714437,781.49,39.70,highres
14.077264,35244059653,-0.050713,-0.078238,-9.836908,0.000461,0.000685,-0.000524,0.146486,1.046670,2.723537,781.49,39.70,highres
14.096212,35244068493,-0.038742,-0.080632,-9.842893,0.000767,0.000380,-0.000829,0.146486,1.046670,2.723537,781.49,39.70,highres
14.115870,35244101063,-0.042333,-0.081829,-9.848879,0.001377,-0.000842,-0.000524,0.146486,1.046670,2.723537,781.49,39.70,highres
14.136696,35244118410,-0.044728,-0.077041,-9.841696,0.000156,-0.000231,-0.000829,0.146486,1.046670,2.723537,781.49,39.70,highres
14.156830,35244142584,-0.045925,-0.073450,-9.835711,0.000156,0.000991,0.000087,0.146486,1.046670,2.723537,781.49,39.70,highres
14.176959,35244162512,-0.050713,-0.094997,-9.830924,-0.000150,0.000075,0.000087,0.141329,1.040682,2.719044,781.49,39.70,highres
14.197011,35244182275,-0.047122,-0.075844,-9.845287,0.001072,0.000991,0.000392,0.141329,1.040682,2.719044,781.49,39.70,highres
14.216335,35244198774,-0.048319,-0.074647,-9.847680,0.000461,0.000685,0.000392,0.149991,1.040931,2.719507,781.49,39.70,highres
14.235187,35244221731,-0.055501,-0.078238,-9.853666,0.001377,0.000991,-0.000829,0.149991,1.040931,2.719507,781.49,39.70,highres
14.257687,35244242101,-0.033954,-0.089012,-9.856062,0.000156,0.000380,-0.000524,0.149991,1.040931,2.719507,781.49,39.70,highres
14.276006,35244262293,-0.048319,-0.071056,-9.844090,0.000156,0.000380,0.000698,0.149991,1.040931,2.719507,781.49,39.70,highres
14.295178,35244276540,-0.049516,-0.075844,-9.845287,0.000156,-0.000842,-0.000218,0.149991,1.040931,2.719507,781.49,39.70,highres
14.306371,35244301615,-0.049516,-0.083026,-9.856061,0.000156,-0.000231,0.000087,0.146950,1.044686,2.718037,781.49,39.70,highres
14.306371,35244319101,-0.049516,-0.073450,-9.840499,-0.001066,0.000380,0.000087,0.146950,1.044686,2.718037,781.49,39.70,highres
14.355949,35244342182,-0.049516,-0.091406,-9.852469,-0.001066,-0.000536,0.001614,0.152008,1.043096,2.714845,781.49,39.70,highres
14.378596,35244362393,-0.042333,-0.090209,-9.850076,-0.000455,0.000075,0.000698,0.152008,1.043096,2.714845,781.50,39.70,highres
14.395219,35244381728,-0.038742,-0.083026,-9.846486,-0.001677,-0.000231,0.000392,0.152008,1.043096,2.714845,781.50,39.70,highres
14.417142,35244399785,-0.049516,-0.074647,-9.850075,-0.001066,-0.000536,0.000392,0.152008,1.043096,2.714845,781.50,39.70,highres
14.437501,35244416537,-0.043530,-0.084223,-9.834514,-0.002288,-0.000231,-0.000219,0.152008,1.043096,2.714845,781.50,39.70,highres
14.455120,35244436178,-0.045925,-0.078238,-9.846484,-0.000455,-0.001147,0.000392,0.148072,1.045210,2.719612,781.50,39.70,highres
14.476512,35244463841,-0.042339,-0.080629,-9.829661,-0.000149,0.001308,-0.000225,0.148072,1.045210,2.719612,781.50,39.70,highres
14.497621,35244486406,-0.043536,-0.079432,-9.839237,-0.000149,0.000392,0.001913,0.142474,1.044931,2.716211,781.50,39.70,highres
14.515378,35244506937,-0.045930,-0.079432,-9.857193,0.000767,-0.000524,0.000080,0.142474,1.044931,2.716211,781.50,39.70,highres
14.535209,35244521922,-0.045930,-0.091402,-9.841632,0.001072,0.000697,-0.000225,0.142474,1.044931,2.716211,781.50,39.70,highres
14.556389,35244544416,-0.044733,-0.086614,-9.841632,0.000156,-0.000219,0.001302,0.142474,1.044931,2.716211,781.50,39.70,highres
14.577040,35244565156,-0.054310,-0.083023,-9.842829,-0.000149,-0.000830,0.001302,0.142474,1.044931,2.716211,781.50,39.70,highres
14.597028,35244584191,-0.043536,-0.077037,-9.833252,-0.000149,0.000392,0.000997,0.145051,1.041585,2.714589,781.50,39.70,highres
14.616527,35244600529,-0.033960,-0.085417,-9.852406,-0.000149,-0.000830,0.001302,0.145051,1.041585,2.714589,781.51,39.70,highres
14.636791,35244623093,-0.053113,-0.083023,-9.850012,-0.000455,0.001003,0.001302,0.143835,1.041388,2.718625,781.51,39.70,highres
14.656561,35244639217,-0.041142,-0.074643,-9.859587,0.000462,-0.000524,-0.001141,0.143835,1.041388,2.718625,781.51,39.70,highres
14.678405,35244661425,-0.044733,-0.079432,-9.852406,-0.000455,-0.000524,0.000386,0.143835,1.041388,2.718625,781.51,39.70,highres
14.696772,35244682017,-0.042339,-0.078235,-9.840435,-0.000455,0.000392,0.000691,0.143835,1.041388,2.718625,781.51,39.70,highres
14.715594,35244701734,-0.047128,-0.071052,-9.840434,-0.000149,-0.000219,-0.000836,0.143835,1.041388,2.718625,781.51,39.70,highres
14.736854,35244720384,-0.050719,-0.077037,-9.838039,0.000462,-0.000830,0.001302,0.143109,1.045816,2.711905,781.51,39.70,highres
14.756474,35244741637,-0.047128,-0.072249,-9.846420,-0.000149,0.000086,0.000997,0.143109,1.045816,2.711905,781.51,39.70,highres
14.776856,35244764355,-0.042339,-0.071052,-9.853601,-0.001066,-0.000830,0.001302,0.143785,1.040597,2.717807,781.51,39.70,highres
14.795705,35244782231,-0.055507,-0.074643,-9.841632,-0.001371,-0.000830,0.000997,0.143785,1.040597,2.717807,781.51,39.70,highres
14.816205,35244800402,-0.051916,-0.080629,-9.848815,-0.000760,0.000392,0.000691,0.143785,1.040597,2.717807,781.51,39.70,highres
14.835662,35244818476,-0.038748,-0.085417,-9.867966,0.000767,-0.001441,0.000691,0.143785,1.040597,2.717807,781.51,39.70,highres
14.857334,35244842237,-0.055507,-0.084220,-9.848814,0.000156,-0.000830,0.000997,0.143785,1.040597,2.717807,781.51,39.70,highres
14.876369,35244864120,-0.051916,-0.077037,-9.841630,-0.000760,-0.000219,0.001302,0.146283,1.041318,2.716114,781.51,39.70,highres
14.895769,35244880310,-0.033960,-0.079432,-9.835647,-0.000149,0.000697,-0.000836,0.146283,1.041318,2.716114,781.51,39.70,highres
14.916079,35244900933,0.007937,-0.065067,-9.838041,0.000767,-0.000830,0.000997,0.140452,1.043211,2.716903,781.51,39.70,highres
14.935239,35244917017,-0.053113,-0.069855,-9.869164,0.000462,0.001003,0.000080,0.140452,1.043211,2.716903,781.50,39.70,highres
14.956635,35244940271,-0.041142,-0.077037,-9.847616,-0.002287,0.000086,0.000386,0.140452,1.043211,2.716903,781.50,39.70,highres
14.977922,35244959720,-0.050719,-0.075840,-9.851208,-0.000760,-0.000524,0.000386,0.140452,1.043211,2.716903,781.50,39.70,highres
14.995768,35244977033,-0.047128,-0.074643,-9.851207,0.000767,0.000392,0.000386,0.140452,1.043211,2.716903,781.50,39.70,highres
15.015449,35244997148,-0.044733,-0.081826,-9.830858,-0.000760,0.000697,0.000080,0.142338,1.045416,2.715057,781.50,39.70,highres
15.035506,35245022601,-0.041142,-0.063870,-9.846422,0.000156,-0.001746,0.000997,0.142338,1.045416,2.715057,781.50,39.70,highres
15.057347,35245045731,-0.056704,-0.083023,-9.841631,0.000156,0.000086,0.000691,0.139268,1.047333,2.734015,781.50,39.70,highres
15.076842,35245064595,-0.036354,-0.073446,-9.835646,0.001683,0.000392,0.000386,0.139268,1.047333,2.734015,781.50,39.70,highres
15.096578,35245084576,-0.047128,-0.075840,-9.841631,0.000767,0.001308,-0.000531,0.139268,1.047333,2.734015,781.50,39.70,highres
15.116513,35245102458,-0.047128,-0.073446,-9.852406,0.001989,-0.001135,0.000386,0.139268,1.047333,2.734015,781.50,39.70,highres
15.135914,35245122518,-0.048325,-0.083023,-9.842828,-0.000149,-0.002052,-0.000531,0.139268,1.047333,2.734015,781.50,39.70,highres
15.157931,35245146310,-0.033960,-0.071052,-9.842829,-0.000455,-0.000830,0.000691,0.146705,1.049376,2.711721,781.50,39.70,highres
15.177204,35245164819,-0.049522,-0.074643,-9.847617,-0.000455,-0.000219,0.000386,0.146705,1.049376,2.711721,781.50,39.70,highres
15.196327,35245182457,-0.039945,-0.078235,-9.841632,-0.000760,0.000086,0.000386,0.144359,1.037909,2.711622,781.50,39.70,highres
15.216899,35245204701,-0.051916,-0.085417,-9.841632,-0.000455,0.000392,-0.000836,0.144359,1.037909,2.711622,781.50,39.70,highres
15.235418,35245222834,-0.052504,-0.087811,-9.849381,-0.000149,0.000086,0.000997,0.144359,1.037909,2.711622,781.50,39.70,highres
15.255468,35245242146,-0.037551,-0.074643,-9.845222,0.000156,0.000086,0.000386,0.144359,1.037909,2.711622,781.50,39.70,highres
15.276218,35245264901,-0.048325,-0.073446,-9.829660,0.000156,0.001003,0.000386,0.144359,1.037909,2.711622,781.50,39.70,highres
15.296760,35245282698,-0.056704,-0.072249,-9.844026,-0.000760,-0.000524,-0.000225,0.144310,1.042012,2.715375,781.50,39.70,highres
15.310259,35245302586,-0.051916,-0.073446,-9.848815,0.000461,0.000086,0.000691,0.144310,1.042012,2.715375,781.50,39.70,highres
15.310259,35245325406,-0.030369,-0.080629,-9.864375,0.000767,-0.000219,-0.000225,0.140845,1.043662,2.714458,781.49,39.70,highres
15.356605,35245345080,-0.050719,-0.073446,-9.829661,0.000462,0.000392,-0.000836,0.140845,1.043662,2.714458,781.49,39.70,highres
15.376068,35245362660,-0.053932,-0.076513,-9.851733,0.000462,-0.000524,-0.000225,0.140845,1.043662,2.714458,781.49,39.70,highres
15.396399,35245385155,-0.041142,-0.080629,-9.834450,-0.000149,-0.000219,0.000691,0.140845,1.043662,2.714458,781.49,39.70,highres
15.416002,35245403147,-0.050719,-0.084220,-9.840435,-0.000455,-0.000524,0.000386,0.140845,1.043662,2.714458,781.49,39.70,highres
15.435790,35245425496,-0.036354,-0.085417,-9.845222,-0.000149,0.001003,0.000080,0.145885,1.048181,2.714372,781.49,39.70,highres
15.456476,35245445136,-0.036354,-0.075840,-9.841633,-0.001066,0.000697,0.000997,0.145885,1.048181,2.714372,781.49,39.70,highres
15.476180,35245465124,-0.051916,-0.083018,-9.855490,-0.001368,0.000395,0.001297,0.143431,1.048175,2.716563,781.49,39.70,highres
15.496580,35245483795,-0.044734,-0.078229,-9.842323,-0.000452,-0.001743,0.000076,0.143431,1.048175,2.716563,781.49,39.70,highres
15.515500,35245505140,-0.037551,-0.069850,-9.839926,0.000159,0.000395,0.001603,0.143431,1.048175,2.716563,781.49,39.70,highres
15.536677,35245525303,-0.045931,-0.081821,-9.839928,0.000159,-0.000216,0.000076,0.143431,1.048175,2.716563,781.49,39.70,highres
15.556970,35245543307,-0.050719,-0.071047,-9.849504,-0.000757,-0.000521,-0.000535,0.143431,1.048175,2.716563,781.49,39.70,highres
15.577984,35245565465,-0.047128,-0.067456,-9.847111,0.000464,0.000395,-0.000841,0.144175,1.044856,2.717261,781.50,39.70,highres
15.595826,35245582837,-0.054310,-0.085412,-9.844717,0.000159,-0.000216,-0.000535,0.144175,1.044856,2.717261,781.50,39.70,highres
15.616703,35245605342,-0.048325,-0.069850,-9.847111,-0.000452,0.000395,0.000381,0.147767,1.035167,2.723670,781.50,39.70,highres
15.636718,35245623069,-0.035157,-0.086609,-9.835139,0.001075,0.000395,0.000992,0.147767,1.035167,2.723670,781.50,39.70,highres
15.656614,35245644938,-0.042339,-0.074638,-9.848308,0.000770,0.001617,0.000381,0.147767,1.035167,2.723670,781.50,39.70,highres
15.671493,35245663109,-0.049522,-0.069850,-9.847111,0.000159,0.001006,0.000381,0.147767,1.035167,2.723670,781.50,39.70,highres
15.695845,35245683164,-0.042339,-0.075835,-9.841125,-0.000452,-0.000827,0.000381,0.147767,1.035167,2.723670,781.50,39.70,highres
15.716117,35245703385,-0.048325,-0.077032,-9.849504,0.001075,-0.000827,-0.000535,0.144206,1.042093,2.721616,781.50,39.70,highres
15.735515,35245722816,-0.061492,-0.090200,-9.851899,-0.000146,0.000395,0.000686,0.143096,1.054700,2.725641,781.50,39.70,highres
15.756796,35245743056,-0.051916,-0.086609,-9.849504,-0.000452,0.000090,0.000381,0.143096,1.054700,2.725641,781.50,39.70,highres
15.780248,35245765452,-0.050719,-0.075835,-9.848308,-0.001063,-0.000521,0.001297,0.143096,1.054700,2.725641,781.50,39.70,highres
15.796626,35245785285,-0.036354,-0.077032,-9.849504,0.000159,0.001312,0.001297,0.143096,1.054700,2.725641,781.50,39.70,highres
15.815670,35245805469,-0.042339,-0.077032,-9.837534,0.000159,0.000395,-0.000535,0.143096,1.054700,2.725641,781.50,39.70,highres
15.841089,35245825909,-0.044734,-0.073441,-9.845915,0.000159,0.000701,-0.000230,0.143096,1.054700,2.725641,781.50,39.70,highres
15.854485,35245842889,-0.055507,-0.086609,-9.853094,0.000464,0.000090,0.000076,0.144280,1.042212,2.715533,781.50,39.70,highres
15.879814,35245865696,-0.068675,-0.072244,-9.850700,-0.000146,-0.000521,-0.000230,0.144034,1.036252,2.715205,781.50,39.70,highres
15.895584,35245881596,-0.041142,-0.089003,-9.832746,-0.000146,-0.001437,-0.000841,0.144034,1.036252,2.715205,781.50,39.85,highres
15.916882,35245902837,-0.048325,-0.079426,-9.849504,-0.000146,0.000395,0.000076,0.144034,1.036252,2.715205,781.50,39.85,highres
15.936325,35245923578,-0.043536,-0.079426,-9.847111,0.000770,-0.000827,0.000381,0.144034,1.036252,2.715205,781.50,39.85,highres
15.959774,35245943649,-0.045931,-0.072244,-9.839928,-0.000757,0.001312,0.000992,0.144034,1.036252,2.715205,781.50,39.85,highres
15.975915,35245964102,-0.043536,-0.077032,-9.853095,0.000159,-0.000521,-0.000230,0.144034,1.036252,2.715205,781.50,40.00,highres
15.996324,35245978662,-0.043536,-0.078229,-9.848308,-0.000452,0.000395,-0.001452,0.141108,1.042714,2.719160,781.50,40.00,highres
16.016707,35246003098,-0.056704,-0.080623,-9.836337,0.000464,0.001006,-0.000841,0.134327,1.046317,2.717313,781.50,40.00,highres
16.036172,35246019974,-0.048325,-0.083018,-9.857884,0.000464,0.000395,0.001603,0.134327,1.046317,2.717313,781.50,40.00,highres
16.059340,35246043800,-0.049522,-0.080623,-9.844716,0.001075,-0.000216,-0.001146,0.134327,1.046317,2.717313,781.50,40.00,highres
16.076437,35246063166,-0.044734,-0.071047,-9.856687,-0.000146,-0.001132,0.000686,0.134327,1.046317,2.717313,781.50,40.00,highres
16.087365,35246081533,-0.045931,-0.074638,-9.848308,0.000464,-0.000521,-0.000230,0.134327,1.046317,2.717313,781.50,40.00,highres
16.116363,35246099491,-0.039945,-0.073441,-9.842323,-0.001674,-0.002048,-0.000535,0.134327,1.046317,2.717313,781.50,40.00,highres
16.136865,35246118675,-0.053113,-0.072244,-9.844716,-0.000146,-0.001743,0.000076,0.139873,1.050781,2.718381,781.50,40.00,highres
16.157383,35246142671,-0.044734,-0.072244,-9.836338,-0.000757,-0.001132,0.000076,0.131237,1.046128,2.718387,781.50,40.00,highres
16.180568,35246163925,-0.054310,-0.077032,-9.837534,0.001381,0.000395,0.000992,0.131237,1.046128,2.718387,781.50,40.00,highres
16.195716,35246179073,-0.038748,-0.066259,-9.842322,-0.000146,-0.000827,0.000381,0.131237,1.046128,2.718387,781.50,40.00,highres
16.215872,35246198654,-0.057901,-0.073441,-9.849505,-0.000452,0.001006,0.000076,0.131237,1.046128,2.718387,781.50,40.00,highres
16.236006,35246223457,-0.051916,-0.073441,-9.835139,-0.001063,-0.001743,0.000686,0.131237,1.046128,2.718387,781.50,40.00,highres
16.256407,35246241840,-0.041142,-0.080623,-9.842321,0.000159,0.000701,-0.001757,0.131237,1.046128,2.718387,781.50,40.00,highres
16.281749,35246262441,-0.042339,-0.075835,-9.839929,0.000770,-0.000827,-0.001146,0.134202,1.044639,2.719446,781.50,40.00,highres
16.297083,35246278594,-0.043536,-0.087806,-9.837534,0.000159,0.000701,-0.000230,0.142156,1.057993,2.712644,781.51,40.00,highres
16.315449,35246303447,-0.048325,-0.081821,-9.841125,-0.000146,0.000701,-0.000230,0.142156,1.057993,2.712644,781.51,40.00,highres
16.315449,35246321406,-0.054310,-0.077032,-9.837534,0.001381,-0.000521,0.000686,0.142156,1.057993,2.712644,781.51,40.00,highres
16.356764,35246342458,-0.045931,-0.079426,-9.835140,-0.000146,0.000090,0.000381,0.142156,1.057993,2.712644,781.51,40.00,highres
16.376146,35246361828,-0.037551,-0.087806,-9.853094,-0.000146,0.000090,-0.000535,0.142156,1.057993,2.712644,781.51,40.00,highres
16.398118,35246382244,-0.057901,-0.081821,-9.847112,0.000770,-0.001132,0.000076,0.142156,1.057993,2.712644,781.51,40.00,highres
16.415764,35246402407,-0.049522,-0.074638,-9.837533,-0.000146,-0.000521,0.000992,0.137274,1.052095,2.717443,781.51,40.00,highres
16.436737,35246421755,-0.048325,-0.066259,-9.838731,-0.001368,0.001617,-0.000841,0.146588,1.035276,2.720030,781.51,40.00,highres
16.456905,35246442536,-0.053113,-0.075835,-9.837534,-0.000757,0.000090,0.001297,0.146588,1.035276,2.720030,781.52,40.00,highres
16.476374,35246461199,-0.030369,-0.079426,-9.831550,-0.000757,0.000395,0.000381,0.146588,1.035276,2.720030,781.52,40.00,highres
16.496539,35246479324,-0.053114,-0.080620,-9.841275,-0.000451,-0.001442,0.000381,0.146588,1.035276,2.720030,781.52,40.00,highres
16.517770,35246493622,-0.050720,-0.085408,-9.849654,-0.000451,0.001001,0.001298,0.146588,1.035276,2.720030,781.52,40.00,highres
16.537001,35246516819,-0.031567,-0.071044,-9.853246,0.000160,0.000085,0.000076,0.146588,1.035276,2.720030,781.52,40.00,highres
16.556462,35246536226,-0.061493,-0.080620,-9.847260,-0.000756,-0.001137,-0.001451,0.144596,1.047421,2.718429,781.52,40.00,highres
16.578329,35246558860,-0.044735,-0.077029,-9.847260,0.000160,0.000085,0.000687,0.143601,1.046877,2.714622,781.52,40.00,highres
16.596875,35246573813,-0.043538,-0.079423,-9.858034,-0.000145,0.000696,-0.000229,0.143601,1.046877,2.714622,781.52,40.00,highres
16.616482,35246591470,-0.048326,-0.075832,-9.849654,0.000160,0.000085,0.000381,0.143601,1.046877,2.714622,781.52,40.00,highres
16.637121,35246612070,-0.049523,-0.086605,-9.842471,-0.000451,0.000085,-0.001146,0.143601,1.046877,2.714622,781.52,40.00,highres
16.656843,35246632425,-0.037552,-0.075832,-9.855640,-0.001672,0.000391,0.001909,0.143601,1.046877,2.714622,781.52,40.00,highres
16.680242,35246649092,-0.042340,-0.074635,-9.847260,-0.000145,0.000696,0.000076,0.143601,1.046877,2.714622,781.52,40.00,highres
16.695309,35246673741,-0.031567,-0.084211,-9.843669,0.000466,0.001001,0.000687,0.146344,1.041296,2.717016,781.51,40.00,highres
16.715857,35246693586,-0.045932,-0.074635,-9.850851,0.000771,0.000085,-0.000229,0.147439,1.032717,2.715528,781.51,40.00,highres
16.736756,35246714142,-0.055508,-0.083014,-9.842472,-0.001062,0.000085,0.000076,0.147439,1.032717,2.715528,781.51,40.00,highres
16.756015,35246726338,-0.049523,-0.075832,-9.841273,-0.000451,0.001001,0.000381,0.147439,1.032717,2.715528,781.51,40.00,highres
16.777309,35246754235,-0.036355,-0.077029,-9.846064,0.000466,0.000696,0.000687,0.147439,1.032717,2.715528,781.51,40.00,highres
16.795114,35246772432,-0.045932,-0.086605,-9.848457,-0.001367,0.000391,0.000076,0.147439,1.032717,2.715528,781.51,40.00,highres
16.816438,35246794917,-0.045932,-0.083014,-9.846064,-0.000451,-0.000220,-0.000535,0.147439,1.032717,2.715528,781.51,40.00,highres
16.835680,35246812133,-0.047129,-0.075832,-9.842472,0.000160,0.000391,0.000992,0.145104,1.046748,2.716428,781.51,40.00,highres
16.856871,35246842055,-0.045932,-0.086605,-9.838881,-0.000145,0.000085,0.002214,0.149816,1.039910,2.703685,781.52,40.00,highres
16.875811,35246866306,-0.033961,-0.085408,-9.846063,-0.001062,0.000696,-0.000229,0.149816,1.039910,2.703685,781.52,40.00,highres
16.895766,35246884131,-0.048326,-0.087802,-9.842472,0.000160,0.000085,0.000992,0.149816,1.039910,2.703685,781.52,40.00,highres
16.916096,35246902392,-0.051917,-0.097379,-9.850851,0.000160,0.001307,0.000381,0.149816,1.039910,2.703685,781.52,40.00,highres
16.937161,35246918943,-0.050720,-0.072241,-9.841275,-0.000145,-0.000220,0.000076,0.149816,1.039910,2.703685,781.51,40.00,highres
16.958767,35246939502,-0.042340,-0.073438,-9.844867,0.000160,-0.000526,0.000687,0.149816,1.039910,2.703685,781.51,40.00,highres
16.977037,35246956356,-0.039946,-0.073438,-9.840077,0.000466,-0.001747,-0.001146,0.141214,1.047233,2.718008,781.51,40.00,highres
16.995859,35246984049,-0.054311,-0.067452,-9.847258,-0.000145,-0.000831,-0.000229,0.140340,1.043468,2.717199,781.51,40.00,highres
17.017396,35247002678,-0.048326,-0.079423,-9.850851,-0.000145,0.000391,0.000381,0.140340,1.043468,2.717199,781.51,40.00,highres
17.037122,35247016713,-0.054311,-0.079423,-9.843669,0.000466,0.000696,0.001298,0.140340,1.043468,2.717199,781.51,40.00,highres
17.055635,35247039099,-0.049523,-0.081817,-9.847260,-0.000145,0.000391,0.000687,0.140340,1.043468,2.717199,781.51,40.00,highres
17.077217,35247060597,-0.050720,-0.073438,-9.844866,0.000466,-0.000526,-0.000229,0.140340,1.043468,2.717199,781.51,40.00,highres
17.096750,35247077240,-0.039946,-0.081817,-9.852049,0.000771,-0.000526,-0.000229,0.140340,1.043468,2.717199,781.51,40.00,highres
17.115469,35247096816,-0.051917,-0.083014,-9.840077,-0.001062,0.000696,0.000076,0.141051,1.051874,2.717489,781.51,40.00,highres
17.136056,35247119457,-0.042341,-0.081817,-9.841277,-0.000145,-0.000526,0.000381,0.144337,1.041589,2.715354,781.51,40.00,highres
17.155286,35247137543,-0.054311,-0.090196,-9.841274,0.001382,-0.000831,0.000076,0.144337,1.041589,2.715354,781.51,40.00,highres
17.177676,35247161903,-0.039946,-0.077029,-9.838881,-0.000451,-0.000526,0.000687,0.144337,1.041589,2.715354,781.51,40.00,highres
17.197669,35247181556,-0.048326,-0.075832,-9.844868,0.001076,0.000696,0.000381,0.144337,1.041589,2.715354,781.51,40.00,highres
17.215947,35247199485,-0.051917,-0.078226,-9.844866,-0.000145,0.001001,0.000076,0.144337,1.041589,2.715354,781.51,40.00,highres
17.238513,35247221612,-0.044735,-0.085408,-9.835289,-0.000451,0.000696,0.001298,0.144337,1.041589,2.715354,781.51,40.00,highres
17.257671,35247239842,-0.049523,-0.073438,-9.846064,-0.001367,-0.001137,-0.000535,0.140054,1.053346,2.723231,781.51,40.00,highres
17.277222,35247262493,-0.055508,-0.069847,-9.836487,0.000771,-0.000831,-0.000229,0.135967,1.057045,2.717961,781.51,40.00,highres
17.297842,35247279696,-0.043538,-0.090196,-9.842472,0.000160,0.000085,-0.000229,0.135967,1.057045,2.717961,781.51,40.00,highres
17.316210,35247302056,-0.039946,-0.074635,-9.843670,-0.000756,-0.001137,0.001603,0.135967,1.057045,2.717961,781.51,40.00,highres
17.316210,35247321845,-0.054311,-0.085408,-9.860428,-0.000756,0.000391,0.001298,0.135967,1.057045,2.717961,781.51,40.00,highres
17.358370,35247344548,-0.057902,-0.085408,-9.848458,0.001382,0.001307,0.000687,0.135967,1.057045,2.717961,781.51,40.00,highres
17.380310,35247362462,-0.051917,-0.090196,-9.844867,0.001076,0.001307,0.000076,0.135967,1.057045,2.717961,781.51,40.00,highres
17.396754,35247384567,-0.050720,-0.079423,-9.855639,-0.000451,0.001307,0.000687,0.135055,1.044992,2.718293,781.51,40.00,highres
17.416415,35247405210,-0.057902,-0.092591,-9.846065,-0.001978,0.000696,0.000687,0.131374,1.048820,2.716339,781.51,40.00,highres
17.435258,35247421952,-0.041143,-0.080620,-9.844867,0.000771,0.001307,-0.000535,0.131374,1.048820,2.716339,781.51,40.00,highres
17.458547,35247442176,-0.044735,-0.081817,-9.843669,0.001382,0.001612,0.000381,0.131374,1.048820,2.716339,781.51,40.00,highres
17.476018,35247458197,-0.048326,-0.080620,-9.842472,0.000160,-0.000220,-0.001146,0.131374,1.048820,2.716339,781.51,40.00,highres
17.497628,35247479936,-0.047125,-0.071049,-9.842860,0.000470,0.000079,-0.000236,0.131374,1.048820,2.716339,781.51,40.00,highres
17.515886,35247502025,-0.053111,-0.079428,-9.838069,0.000164,-0.001143,0.000070,0.131374,1.048820,2.716339,781.51,40.00,highres
17.536389,35247522481,-0.041140,-0.079428,-9.846450,0.000470,0.002522,0.000375,0.140857,1.048533,2.716816,781.51,40.00,highres
17.556825,35247532840,-0.045928,-0.081822,-9.842858,-0.001057,0.000689,0.001292,0.136536,1.048531,2.720726,781.51,40.00,highres
17.576254,35247562982,-0.061490,-0.084217,-9.851237,0.000470,-0.000532,0.000681,0.136536,1.048531,2.720726,781.51,40.00,highres
17.597421,35247583271,-0.049519,-0.073443,-9.850041,0.001691,0.000384,0.000070,0.136536,1.048531,2.720726,781.51,40.00,highres
17.617860,35247602624,-0.042337,-0.068655,-9.853631,-0.000447,-0.000532,-0.000846,0.136536,1.048531,2.720726,781.51,40.00,highres
17.636741,35247617591,-0.044731,-0.077034,-9.854829,-0.000752,0.000995,0.000681,0.136536,1.048531,2.720726,781.51,40.00,highres
17.656041,35247642398,-0.042337,-0.087808,-9.841660,-0.000141,0.000384,0.000375,0.136536,1.048531,2.720726,781.51,40.00,highres
17.678740,35247662435,-0.048322,-0.084217,-9.844054,-0.000141,-0.000227,0.001903,0.148296,1.039294,2.711663,781.51,40.00,highres
17.697601,35247680755,-0.049519,-0.079428,-9.846450,0.000775,-0.000227,0.000375,0.139992,1.046664,2.715256,781.51,40.00,highres
17.718827,35247702577,-0.049519,-0.081822,-9.846450,-0.000752,-0.000227,-0.000236,0.139992,1.046664,2.715256,781.51,40.00,highres
17.736769,35247720781,-0.047125,-0.083019,-9.842858,0.000470,0.000384,-0.000236,0.139992,1.046664,2.715256,781.51,40.00,highres
17.757389,35247737568,-0.033958,-0.080625,-9.839268,0.000164,-0.000227,0.001903,0.139992,1.046664,2.715256,781.51,40.00,highres
17.776963,35247757906,-0.049519,-0.074640,-9.845253,0.000470,-0.000227,0.000070,0.139992,1.046664,2.715256,781.51,40.00,highres
17.795664,35247774732,-0.044731,-0.081822,-9.853631,-0.000141,0.000384,0.000375,0.139992,1.046664,2.715256,781.51,40.00,highres
17.817907,35247800777,-0.043534,-0.083019,-9.841660,-0.000447,0.000384,0.000070,0.145621,1.040491,2.720303,781.51,40.00,highres
17.837692,35247818295,-0.036352,-0.078231,-9.846449,-0.000141,0.000689,0.000986,0.145954,1.042147,2.720935,781.51,40.00,highres
17.857572,35247842231,-0.043534,-0.089005,-9.841662,0.000215,0.000279,0.000333,0.145954,1.042147,2.720935,781.51,40.00,highres
17.877137,35247861255,-0.044731,-0.078231,-9.838068,0.000164,0.000384,0.000070,0.145954,1.042147,2.720935,781.51,40.00,highres
17.896247,35247882420,-0.051914,-0.079428,-9.844055,-0.000752,-0.001143,0.000681,0.145954,1.042147,2.720935,781.51,40.00,highres
17.916091,35247904800,-0.047125,-0.083019,-9.836873,-0.000752,-0.000532,-0.000541,0.145954,1.042147,2.720935,781.51,40.00,highres
17.936378,35247922111,-0.045928,-0.083019,-9.841660,0.000470,0.000384,-0.000235,0.145954,1.042147,2.720935,781.51,40.00,highres
17.956355,35247942185,-0.044731,-0.073443,-9.850041,0.000470,-0.000227,0.000375,0.142600,1.044565,2.717081,781.51,40.00,highres
17.976852,35247962637,-0.041140,-0.086611,-9.845252,-0.000447,0.000384,0.000681,0.141531,1.054639,2.723259,781.51,40.00,highres
17.995667,35247980789,-0.045928,-0.080625,-9.832085,-0.000447,-0.000532,0.000375,0.141531,1.054639,2.723259,781.51,40.00,highres
18.017119,35247997577,-0.047125,-0.077034,-9.847647,0.000775,-0.001143,-0.000236,0.141531,1.054639,2.723259,781.51,40.00,highres
18.036350,35248017422,-0.039943,-0.096187,-9.852435,0.000164,0.000689,0.000681,0.141531,1.054639,2.723259,781.51,40.00,highres
18.056983,35248037798,-0.054308,-0.068655,-9.850041,0.000164,0.000384,0.001292,0.141531,1.054639,2.723259,781.51,40.00,highres
18.075604,35248060691,-0.039943,-0.081822,-9.842857,-0.000752,0.000079,-0.000236,0.141531,1.054639,2.723259,781.51,40.00,highres
18.096957,35248080531,-0.049519,-0.080625,-9.844055,0.001386,0.000689,0.000681,0.135385,1.050973,2.717302,781.51,40.00,highres
18.115557,35248097709,-0.048322,-0.067458,-9.844056,0.000470,0.000079,0.000070,0.135480,1.048512,2.717191,781.51,40.00,highres
18.137894,35248117714,-0.045928,-0.078231,-9.840465,-0.000447,0.000689,0.000681,0.135480,1.048512,2.717191,781.51,40.00,highres
18.155529,35248145142,-0.045928,-0.087808,-9.844055,0.000470,-0.000227,0.000070,0.135480,1.048512,2.717191,781.51,40.00,highres
18.176608,35248164946,-0.049519,-0.079428,-9.847647,-0.000752,-0.000838,0.000681,0.135480,1.048512,2.717191,781.51,40.00,highres
18.195768,35248185936,-0.047125,-0.074640,-9.839267,-0.000447,-0.001143,-0.001152,0.135480,1.048512,2.717191,781.51,40.00,highres
18.217129,35248205325,-0.049519,-0.075837,-9.847645,-0.000447,0.000079,0.000375,0.135480,1.048512,2.717191,781.51,40.00,highres
18.236357,35248224978,-0.049519,-0.072246,-9.846450,0.000470,0.000079,-0.001763,0.143631,1.045502,2.716498,781.51,40.00,highres
18.255599,35248245202,-0.039943,-0.079428,-9.846450,0.000164,-0.000227,-0.000541,0.141184,1.040920,2.711637,781.51,40.00,highres
18.276342,35248265025,-0.039943,-0.086611,-9.829692,-0.000752,-0.000227,-0.000541,0.141184,1.040920,2.711637,781.51,40.00,highres
18.295986,35248285154,-0.035155,-0.084217,-9.851237,0.000775,0.000079,0.000375,0.141184,1.040920,2.711637,781.51,40.00,highres
18.316472,35248302667,-0.021987,-0.074640,-9.852436,-0.002279,-0.000532,-0.000236,0.141184,1.040920,2.711637,781.51,40.00,highres
18.318461,35248323101,-0.049519,-0.090202,-9.848844,-0.000752,0.000689,-0.000541,0.141184,1.040920,2.711637,781.51,40.00,highres
18.318461,35248342540,-0.045928,-0.080625,-9.836874,-0.001057,-0.000838,-0.000236,0.141184,1.040920,2.711637,781.51,40.00,highres
18.376244,35248362579,-0.047125,-0.074640,-9.838070,0.000470,-0.000838,0.000375,0.149529,1.046022,2.713150,781.51,40.00,highres
18.397367,35248385423,-0.045928,-0.069852,-9.851236,-0.000447,-0.000532,0.001292,0.138330,1.035971,2.711424,781.51,40.00,highres
18.415294,35248400597,-0.056702,-0.077034,-9.824902,-0.000141,0.000689,0.000986,0.138330,1.035971,2.711424,781.51,40.00,highres
18.437426,35248421985,-0.056702,-0.078231,-9.847647,0.000470,-0.000227,-0.001457,0.138330,1.035971,2.711424,781.51,40.00,highres
18.457007,35248440795,-0.047125,-0.075837,-9.841660,-0.000141,-0.000532,0.000375,0.138330,1.035971,2.711424,781.51,40.00,highres
18.476325,35248462721,-0.048322,-0.080625,-9.838071,-0.000447,-0.000532,0.000070,0.138330,1.035971,2.711424,781.51,40.00,highres
18.495786,35248478360,-0.043534,-0.074640,-9.838070,-0.000141,-0.000227,0.000681,0.138330,1.035971,2.711424,781.51,40.00,highres
18.516928,35248499421,-0.038743,-0.081819,-9.834083,-0.000745,-0.000836,-0.000850,0.140600,1.049274,2.714281,781.51,40.00,highres
18.536004,35248518001,-0.048320,-0.079425,-9.850840,0.001393,-0.001141,-0.000545,0.141361,1.042376,2.724418,781.51,40.00,highres
18.557390,35248539312,-0.042335,-0.078228,-9.842462,0.000476,-0.000225,-0.000239,0.141361,1.042376,2.724418,781.51,40.00,highres
18.578455,35248557946,-0.047123,-0.078228,-9.850841,0.000171,-0.000225,0.000066,0.141361,1.042376,2.724418,781.51,40.00,highres
18.596616,35248578367,-0.033955,-0.086607,-9.841265,-0.000745,-0.000836,0.000677,0.141361,1.042376,2.724418,781.51,40.00,highres
18.617178,35248595505,-0.053108,-0.086607,-9.856827,-0.001356,-0.002057,-0.000850,0.141361,1.042376,2.724418,781.51,40.00,highres
