t_wall_s,t_boot_us,ax,ay,az,gx,gy,gz,mx,my,mz,abs_pressure,temperature,source
2.253189,35067937544,-0.041015,-0.076078,-9.836378,-0.000189,0.000265,0.002951,0.154638,1.048918,2.730280,781.51,40.40,highres
2.253189,35067959377,-0.050592,-0.078472,-9.835180,0.000728,-0.000040,0.003562,0.154638,1.048918,2.730280,781.51,40.40,highres
2.253189,35067974294,-0.047000,-0.073684,-9.831591,-0.000189,0.000265,0.002951,0.154638,1.048918,2.730280,781.51,40.40,highres
2.253189,35067999789,-0.048198,-0.068896,-9.842363,0.000117,0.000876,0.003257,0.154638,1.048918,2.730280,781.51,40.40,highres
2.253189,35068016942,-0.048198,-0.080867,-9.841166,0.001949,0.000265,0.002951,0.154638,1.048918,2.730280,781.51,40.40,highres
2.253189,35068037021,-0.050592,-0.073684,-9.837576,-0.000494,-0.000346,0.004173,0.156982,1.051873,2.708423,781.52,40.40,highres
2.253189,35068057576,-0.048198,-0.067699,-9.855532,-0.000494,0.000571,0.003868,0.156982,1.051873,2.708423,781.52,40.40,highres
2.253648,35068079090,-0.041015,-0.072487,-9.843561,0.000422,-0.001262,0.003257,0.152535,1.050033,2.715812,781.52,40.40,highres
2.253648,35068104931,-0.050592,-0.086852,-9.848351,0.001644,0.000265,0.003257,0.152535,1.050033,2.715812,781.52,40.40,highres
2.253648,35068124657,-0.056577,-0.078472,-9.842363,-0.000189,-0.000651,0.002340,0.152535,1.050033,2.715812,781.53,40.40,highres
2.253648,35068142455,-0.049395,-0.079670,-9.836377,0.000422,0.001487,0.004173,0.152535,1.050033,2.715812,781.53,40.40,highres
2.253648,35068157193,-0.044606,-0.058123,-9.838773,-0.000494,-0.000040,0.004173,0.152535,1.050033,2.715812,781.53,40.40,highres
2.253648,35068180623,-0.042212,-0.070093,-9.836379,-0.001105,0.000265,0.004478,0.150977,1.048820,2.716768,781.53,40.40,highres
2.253648,35068200236,-0.064956,-0.062911,-9.842364,0.000422,0.000571,0.002646,0.150977,1.048820,2.716768,781.52,40.40,highres
2.253648,35068221330,-0.052986,-0.072487,-9.841166,-0.000494,0.000265,0.004173,0.162309,1.050065,2.715139,781.52,40.40,highres
2.253893,35068240306,-0.038621,-0.067699,-9.829196,-0.000494,-0.000040,0.002646,0.162309,1.050065,2.715139,781.52,40.40,highres
2.253893,35068260753,-0.044606,-0.080867,-9.848350,0.000117,0.001487,0.002035,0.162309,1.050065,2.715139,781.52,40.40,highres
2.253893,35068282196,-0.056577,-0.079670,-9.843561,-0.000189,0.000265,0.003257,0.162309,1.050065,2.715139,781.52,40.40,highres
2.253893,35068300247,-0.049395,-0.082064,-9.842364,-0.000189,-0.000040,0.003562,0.162309,1.050065,2.715139,781.52,40.40,highres
2.253893,35068322415,-0.050592,-0.085655,-9.845955,-0.000800,0.001487,0.004478,0.154638,1.051333,2.718242,781.52,40.40,highres
2.253893,35068337137,-0.057774,-0.073684,-9.837576,0.000422,-0.000040,0.004173,0.154638,1.051333,2.718242,781.52,40.40,highres
2.253893,35068360724,-0.054183,-0.068896,-9.844757,0.000117,0.000265,0.003257,0.156634,1.048566,2.724596,781.52,40.40,highres
2.254154,35068380629,-0.052986,-0.078472,-9.832787,0.000728,0.001181,0.005395,0.156634,1.048566,2.724596,781.52,40.40,highres
2.254154,35068400373,-0.049395,-0.077275,-9.839970,-0.000494,-0.000346,0.003562,0.156634,1.048566,2.724596,781.52,40.40,highres
2.254154,35068422546,-0.044606,-0.067699,-9.842364,-0.000189,-0.000040,0.004784,0.156634,1.048566,2.724596,781.52,40.40,highres
2.254154,35068444638,-0.049395,-0.070093,-9.826801,0.000728,0.000265,0.003868,0.156634,1.048566,2.724596,781.53,40.40,highres
2.254154,35068465336,-0.043409,-0.065305,-9.836377,-0.000494,-0.000346,0.003868,0.150818,1.051468,2.712983,781.53,40.40,highres
2.254154,35068484232,-0.052980,-0.068896,-9.834090,-0.000187,-0.000039,0.003218,0.150818,1.051468,2.712983,781.53,40.40,highres
2.254154,35068505136,-0.046994,-0.084457,-9.850849,0.000119,0.001793,0.003828,0.148733,1.047806,2.705772,781.53,40.40,highres
2.254154,35068522638,-0.032630,-0.073684,-9.847259,-0.000798,-0.000039,0.004439,0.148733,1.047806,2.705772,781.52,40.40,highres
2.254154,35068542167,-0.066147,-0.080866,-9.841272,-0.000187,-0.000345,0.003218,0.148733,1.047806,2.705772,781.52,40.40,highres
2.254330,35068562505,-0.045797,-0.076078,-9.848454,0.000119,0.000877,0.004745,0.148733,1.047806,2.705772,781.52,40.40,highres
2.254330,35068584995,-0.043403,-0.076078,-9.848455,-0.000492,0.000571,0.003218,0.148733,1.047806,2.705772,781.52,40.40,highres
2.254330,35068602213,-0.054177,-0.068896,-9.846061,-0.001409,0.001488,0.003828,0.149487,1.051896,2.719469,781.52,40.40,highres
2.254330,35068622402,-0.044600,-0.070093,-9.841275,0.001035,0.001182,0.004745,0.149487,1.051896,2.719469,781.52,40.40,highres
2.254330,35068642441,-0.042206,-0.082063,-9.831697,0.000424,-0.000039,0.003218,0.156329,1.044988,2.710693,781.52,40.40,highres
2.254330,35068665146,-0.054177,-0.084457,-9.850849,-0.000798,0.000266,0.003523,0.156329,1.044988,2.710693,781.52,40.40,highres
2.254330,35068684918,-0.050585,-0.078472,-9.849652,0.000424,0.001182,0.003218,0.156329,1.044988,2.710693,781.52,40.40,highres
2.254502,35068700986,-0.050585,-0.066502,-9.844864,-0.000798,-0.000345,0.003828,0.156329,1.044988,2.710693,781.52,40.40,highres
2.254502,35068718107,-0.055374,-0.071290,-9.841273,0.000119,0.000266,0.003523,0.156329,1.044988,2.710693,781.52,40.40,highres
2.254502,35068735751,-0.051782,-0.074881,-9.846061,0.000119,-0.000650,0.004439,0.145695,1.049199,2.720621,781.52,40.40,highres
2.254502,35068755111,-0.051782,-0.067699,-9.844864,0.000119,-0.000650,0.004439,0.145695,1.049199,2.720621,781.51,40.40,highres
2.254502,35068780705,-0.052980,-0.060516,-9.846062,-0.000187,-0.000345,0.002912,0.141832,1.043068,2.713198,781.51,40.40,highres
2.254502,35068797871,-0.049388,-0.082063,-9.842470,0.000119,-0.000039,0.003218,0.141832,1.043068,2.713198,781.51,40.40,highres
2.254502,35068812620,-0.051782,-0.074881,-9.842470,-0.000798,-0.000039,0.003218,0.141832,1.043068,2.713198,781.51,40.40,highres
2.254502,35068830881,-0.045797,-0.076078,-9.840075,-0.002019,0.000266,0.004134,0.141832,1.043068,2.713198,781.52,40.40,highres
2.254688,35068852672,-0.054177,-0.073684,-9.832893,-0.000187,-0.001261,0.003523,0.141832,1.043068,2.713198,781.52,40.40,highres
2.254688,35068872626,-0.054177,-0.089246,-9.840075,0.000730,-0.000650,0.003523,0.152294,1.049287,2.720466,781.52,40.40,highres
2.254688,35068901167,-0.045797,-0.067699,-9.847259,-0.000187,0.000571,0.003828,0.152294,1.049287,2.720466,781.52,40.40,highres
2.254688,35068922780,-0.049388,-0.066502,-9.840075,-0.000187,-0.000345,0.003828,0.155149,1.050124,2.720667,781.53,40.40,highres
2.254688,35068943451,-0.056571,-0.084457,-9.829302,-0.000798,-0.000650,0.003523,0.155149,1.050124,2.720667,781.53,40.40,highres
2.254688,35068960914,-0.054177,-0.065305,-9.843667,0.000119,0.000877,0.005050,0.155149,1.050124,2.720667,781.53,40.40,highres
2.254688,35068982292,-0.056571,-0.071290,-9.846060,-0.000187,-0.000650,0.005050,0.155149,1.050124,2.720667,781.53,40.40,highres
2.254845,35069001228,-0.044600,-0.076078,-9.841275,0.000119,-0.000650,0.003828,0.155149,1.050124,2.720667,781.52,40.40,highres
2.254845,35069025304,-0.043403,-0.076078,-9.841273,-0.000492,0.000266,0.003523,0.152722,1.052563,2.715440,781.52,40.40,highres
2.254845,35069042873,-0.046994,-0.076078,-9.842469,0.000730,-0.000345,0.002912,0.152722,1.052563,2.715440,781.52,40.40,highres
2.254845,35069065421,-0.050585,-0.070093,-9.841272,-0.000798,-0.000039,0.003828,0.160838,1.043145,2.708227,781.52,40.40,highres
2.254845,35069083532,-0.057768,-0.076078,-9.834091,-0.000492,0.000877,0.004134,0.160838,1.043145,2.708227,781.51,40.40,highres
2.254845,35069106358,-0.061359,-0.076078,-9.841273,0.000119,0.000266,0.003218,0.160838,1.043145,2.708227,781.51,40.40,highres
2.254845,35069123595,-0.054177,-0.079669,-9.838880,0.000424,0.001182,0.003523,0.160838,1.043145,2.708227,781.51,40.40,highres
2.254845,35069143063,-0.045797,-0.077275,-9.847259,0.000119,0.000571,0.002607,0.160838,1.043145,2.708227,781.51,40.40,highres
2.255028,35069162929,-0.050585,-0.074881,-9.844864,0.000119,0.001182,0.003218,0.155649,1.051666,2.719525,781.51,40.40,highres
2.255028,35069183663,-0.050585,-0.074881,-9.837681,0.000424,-0.000345,0.003828,0.155649,1.051666,2.719525,781.51,40.40,highres
2.255028,35069201731,-0.050585,-0.072487,-9.835288,-0.000187,-0.000956,0.003218,0.141880,1.043571,2.715866,781.51,40.40,highres
2.255028,35069221917,-0.056571,-0.076078,-9.844864,0.000730,-0.000039,0.004745,0.141880,1.043571,2.715866,781.51,40.40,highres
2.255028,35069241001,-0.045797,-0.078472,-9.836485,-0.000187,-0.000650,0.002912,0.141880,1.043571,2.715866,781.52,40.40,highres
2.255028,35069261539,-0.038615,-0.078472,-9.842470,-0.000492,0.000266,0.003218,0.141880,1.043571,2.715866,781.52,40.40,highres
2.255028,35069281199,-0.050585,-0.072487,-9.838879,0.000119,-0.000956,0.003523,0.141880,1.043571,2.715866,781.52,40.40,highres
2.255028,35069302785,-0.048191,-0.076078,-9.846061,-0.000187,-0.000039,0.003523,0.153458,1.047937,2.717453,781.52,40.40,highres
2.255228,35069322689,-0.054177,-0.073684,-9.843667,-0.000187,0.000266,0.004439,0.153458,1.047937,2.717453,781.52,40.40,highres
2.255228,35069343298,-0.045797,-0.072487,-9.828105,-0.000492,0.000571,0.004134,0.152130,1.042531,2.718257,781.52,40.40,highres
2.255228,35069358186,-0.046994,-0.074881,-9.840075,0.000119,-0.000039,0.003828,0.152130,1.042531,2.718257,781.52,40.40,highres
2.255228,35069379292,-0.048191,-0.073684,-9.844865,0.000119,-0.000039,0.003218,0.152130,1.042531,2.718257,781.52,40.40,highres
2.255228,35069399015,-0.049388,-0.070093,-9.840075,0.000730,0.000877,0.004439,0.152130,1.042531,2.718257,781.51,40.40,highres
2.255228,35069415821,-0.044600,-0.076078,-9.837683,-0.000798,0.000266,0.004745,0.152130,1.042531,2.718257,781.51,40.40,highres
2.255228,35069438901,-0.057768,-0.090443,-9.840075,0.000119,0.000266,0.003828,0.149907,1.052563,2.714201,781.51,40.40,highres
2.255397,35069455871,-0.051782,-0.076078,-9.840075,0.000424,-0.000345,0.003828,0.149907,1.052563,2.714201,781.51,40.40,highres
2.255397,35069478792,-0.057768,-0.072487,-9.849653,-0.000492,-0.000345,0.002912,0.149933,1.048752,2.721542,781.52,40.05,highres
2.255397,35069496173,-0.050588,-0.085656,-9.824950,-0.000183,0.001180,0.002847,0.149933,1.048752,2.721542,781.52,40.05,highres
2.255397,35069523371,-0.049501,-0.070378,-9.837944,-0.000203,0.000867,0.003917,0.149933,1.048752,2.721542,781.52,40.05,highres
2.255397,35069544218,-0.044603,-0.074882,-9.838118,0.000428,-0.000042,0.002542,0.149933,1.048752,2.721542,781.52,40.05,highres
2.255397,35069563682,-0.048194,-0.070094,-9.841709,-0.000488,0.000874,0.003458,0.149933,1.048752,2.721542,781.53,39.70,highres
2.255397,35069583296,-0.044603,-0.070094,-9.838119,-0.000793,0.000263,0.003153,0.147251,1.052059,2.719438,781.53,39.70,highres
2.255397,35069602259,-0.048194,-0.083262,-9.835724,-0.000793,-0.001875,0.002847,0.147251,1.052059,2.719438,781.53,39.70,highres
2.255508,35069623393,-0.055376,-0.077276,-9.833329,-0.000488,0.000874,0.003764,0.155548,1.057639,2.717160,781.53,39.70,highres
2.255508,35069643749,-0.056573,-0.072488,-9.846497,-0.000183,0.001790,0.005596,0.155548,1.057639,2.717160,781.52,39.70,highres
2.255508,35069663622,-0.043406,-0.071291,-9.845301,0.000428,-0.000653,0.003764,0.155548,1.057639,2.717160,781.52,39.70,highres
2.255508,35069683984,-0.030461,-0.064652,-9.840512,-0.000183,0.001790,0.003153,0.155548,1.057639,2.717160,781.52,39.70,highres
2.255508,35069703496,-0.048194,-0.073685,-9.834527,0.001039,0.000874,0.003153,0.155548,1.057639,2.717160,781.52,39.70,highres
2.255508,35069724196,-0.051785,-0.071291,-9.833330,-0.000183,-0.000042,0.003458,0.153625,1.052514,2.723977,781.52,39.70,highres
2.255508,35069744380,-0.055376,-0.062912,-9.838119,0.000123,-0.000348,0.003764,0.153625,1.052514,2.723977,781.52,39.70,highres
2.255601,35069764497,-0.048194,-0.064109,-9.842905,0.000123,0.000569,0.004680,0.143412,1.043687,2.713472,781.52,39.70,highres
2.255601,35069782602,-0.045800,-0.074882,-9.826149,-0.000488,0.000569,0.003764,0.143412,1.043687,2.713472,781.52,39.70,highres
2.255601,35069803886,-0.044603,-0.082065,-9.838117,-0.000793,-0.000958,0.004375,0.143412,1.043687,2.713472,781.52,39.70,highres
2.255601,35069823601,-0.046997,-0.065306,-9.845299,-0.000183,0.000263,0.004069,0.143412,1.043687,2.713472,781.52,39.70,highres
2.255601,35069838929,-0.051785,-0.071291,-9.838117,-0.000488,0.000874,0.002847,0.143412,1.043687,2.713472,781.52,39.70,highres
2.255601,35069864148,-0.044603,-0.074882,-9.838119,-0.000183,0.000569,0.003458,0.156149,1.053472,2.716460,781.52,39.70,highres
2.255601,35069882200,-0.044603,-0.077276,-9.834527,0.000428,0.000569,0.004375,0.156149,1.053472,2.716460,781.53,39.70,highres
2.255601,35069903667,-0.046997,-0.064109,-9.838119,0.000123,0.001790,0.002542,0.153793,1.053805,2.717858,781.53,39.70,highres
2.255702,35069918933,-0.046997,-0.074882,-9.842906,0.000123,-0.000348,0.003153,0.153793,1.053805,2.717858,781.53,39.70,highres
2.255702,35069941440,-0.060164,-0.065306,-9.844104,-0.000488,-0.000042,0.003458,0.153793,1.053805,2.717858,781.53,39.70,highres
2.255702,35069956818,-0.049391,-0.070094,-9.844103,-0.000488,-0.000042,0.003153,0.153793,1.053805,2.717858,781.53,39.70,highres
2.255702,35069979685,-0.043406,-0.082065,-9.836921,-0.000183,-0.000653,0.002847,0.153793,1.053805,2.717858,781.53,39.70,highres
2.255702,35070001734,-0.041012,-0.068897,-9.850087,0.000428,0.000569,0.004069,0.152635,1.046185,2.714344,781.53,39.70,highres
2.255702,35070019283,-0.044603,-0.061715,-9.838119,0.000123,0.000874,0.003764,0.152635,1.046185,2.714344,781.53,39.70,highres
2.255702,35070041346,-0.055376,-0.072488,-9.834527,0.000428,0.000569,0.004375,0.154824,1.053866,2.717677,781.52,39.70,highres
2.255702,35070061610,-0.046997,-0.068897,-9.836920,-0.000793,0.001180,0.003458,0.154824,1.053866,2.717677,781.52,39.70,highres
2.255797,35070081972,-0.052982,-0.082065,-9.838119,0.000734,0.002707,0.004069,0.154824,1.053866,2.717677,781.52,39.70,highres
2.255797,35070102600,-0.055376,-0.079670,-9.835724,0.000123,0.001485,0.003458,0.154824,1.053866,2.717677,781.52,39.70,highres
2.255797,35070121434,-0.042209,-0.070094,-9.838119,0.000123,0.000263,0.003153,0.154824,1.053866,2.717677,781.52,39.70,highres
2.255797,35070139025,-0.043406,-0.073685,-9.839314,0.000123,0.001485,0.003764,0.147042,1.053834,2.715628,781.52,39.70,highres
2.255797,35070162314,-0.056573,-0.072488,-9.842906,-0.000793,-0.000042,0.003153,0.147042,1.053834,2.715628,781.52,39.70,highres
2.255864,35070181479,-0.048194,-0.064109,-9.835724,-0.001099,0.000263,0.004069,0.158673,1.049313,2.716288,781.52,39.70,highres
2.255864,35070198716,-0.045800,-0.072488,-9.842906,-0.000793,-0.000042,0.003458,0.158673,1.049313,2.716288,781.51,39.70,highres
2.298946,35070216465,-0.037420,-0.080867,-9.835723,0.000428,0.000263,0.003764,0.158673,1.049313,2.716288,781.51,39.70,highres
2.319528,35070237366,-0.054179,-0.071291,-9.836921,0.000123,-0.000653,0.004680,0.158673,1.049313,2.716288,781.51,39.70,highres
2.340891,35070260236,-0.051785,-0.067700,-9.854876,-0.000183,-0.000348,0.004375,0.158673,1.049313,2.716288,781.51,39.70,highres
2.358927,35070277203,-0.051785,-0.072488,-9.847693,0.000428,-0.000958,0.003153,0.153437,1.050279,2.715661,781.52,39.70,highres
2.379161,35070296652,-0.051785,-0.071291,-9.841709,-0.000488,0.000569,0.004069,0.153437,1.050279,2.715661,781.52,39.70,highres
2.399045,35070314116,-0.054179,-0.070094,-9.846497,0.000428,-0.000042,0.003153,0.153488,1.049056,2.712948,781.52,39.70,highres
2.419504,35070337045,-0.044603,-0.074882,-9.834527,0.001039,0.000263,0.003764,0.153488,1.049056,2.712948,781.52,39.70,highres
2.442667,35070357021,-0.043406,-0.064109,-9.842907,-0.000488,-0.000958,0.004375,0.153488,1.049056,2.712948,781.52,39.70,highres
2.459019,35070367187,-0.055376,-0.074882,-9.833330,-0.001099,0.001180,0.003458,0.153488,1.049056,2.712948,781.52,39.70,highres
2.477791,35070402015,-0.048194,-0.073685,-9.826147,0.000428,-0.000653,0.003153,0.153488,1.049056,2.712948,781.52,39.70,highres
2.499390,35070422392,-0.039814,-0.073685,-9.836921,-0.000793,0.000569,0.004375,0.150729,1.052169,2.714619,781.52,39.70,highres
2.519232,35070444764,-0.042209,-0.074882,-9.839314,-0.000183,-0.000348,0.002847,0.150729,1.052169,2.714619,781.53,39.70,highres
2.522162,35070465370,-0.055376,-0.079670,-9.839314,0.000123,0.000874,0.003458,0.151278,1.046260,2.713766,781.53,39.70,highres
2.558703,35070482175,-0.057770,-0.068897,-9.838119,0.000123,-0.000042,0.004069,0.151278,1.046260,2.713766,781.53,39.70,highres
2.579272,35070501969,-0.051790,-0.083255,-9.840485,0.000736,-0.000360,0.003706,0.151278,1.046260,2.713766,781.53,39.70,highres
2.599897,35070524290,-0.049396,-0.071284,-9.842878,0.000430,0.001472,0.003706,0.151278,1.046260,2.713766,781.53,39.70,highres
2.620111,35070544761,-0.041017,-0.072481,-9.845272,-0.000486,0.000251,0.003400,0.151278,1.046260,2.713766,781.53,39.70,highres
2.638734,35070564302,-0.056579,-0.072481,-9.832104,0.000125,-0.000360,0.003095,0.155735,1.048503,2.717360,781.53,39.70,highres
2.658073,35070584447,-0.051790,-0.082058,-9.840485,0.001041,0.000556,0.003095,0.155735,1.048503,2.717360,781.53,39.70,highres
2.680253,35070604552,-0.050593,-0.070087,-9.842876,0.000125,0.001472,0.003706,0.158648,1.049355,2.712574,781.53,39.70,highres
2.699375,35070622401,-0.041017,-0.064102,-9.826118,-0.000486,-0.000055,0.004316,0.158648,1.049355,2.712574,781.53,39.70,highres
2.719864,35070644533,-0.044608,-0.083255,-9.851257,0.000736,0.001167,0.004011,0.158648,1.049355,2.712574,781.53,39.70,highres
2.740924,35070664587,-0.042214,-0.071284,-9.832104,-0.000486,-0.000666,0.004622,0.158648,1.049355,2.712574,781.53,39.70,highres
2.758145,35070679542,-0.052987,-0.077269,-9.835695,0.000125,0.001472,0.003095,0.158648,1.049355,2.712574,781.52,39.70,highres
2.781141,35070696957,-0.063761,-0.072481,-9.834499,-0.000181,0.001167,0.003095,0.151256,1.051306,2.716523,781.52,39.70,highres
2.799385,35070717069,-0.047002,-0.077269,-9.835695,-0.000181,0.000251,0.003706,0.151256,1.051306,2.716523,781.52,39.70,highres
2.818777,35070737167,-0.041017,-0.078466,-9.838087,-0.000181,0.001472,0.003706,0.152425,1.047880,2.717345,781.52,39.70,highres
2.841775,35070757104,-0.051790,-0.070087,-9.827316,-0.000181,-0.000360,0.002178,0.152425,1.047880,2.717345,781.53,39.70,highres
2.858708,35070777550,-0.058973,-0.078466,-9.841681,-0.000181,-0.001276,0.003400,0.152425,1.047880,2.717345,781.53,39.70,highres
2.879709,35070800231,-0.047002,-0.079663,-9.838091,0.000736,-0.000055,0.004011,0.152425,1.047880,2.717345,781.53,39.70,highres
2.900119,35070820044,-0.044608,-0.065299,-9.833302,0.000430,0.000862,0.003400,0.152425,1.047880,2.717345,781.53,39.70,highres
2.918342,35070834802,-0.060170,-0.072481,-9.844076,-0.000486,-0.000971,0.004011,0.154327,1.049221,2.711258,781.53,39.70,highres
2.940117,35070852198,-0.051790,-0.068890,-9.845272,-0.000181,0.001167,0.002789,0.154327,1.049221,2.711258,781.52,39.70,highres
2.958956,35070877663,-0.058973,-0.067693,-9.846470,0.000430,-0.000971,0.004011,0.135585,1.050089,2.719359,781.52,39.70,highres
2.979672,35070894927,-0.054184,-0.071284,-9.835695,-0.000486,-0.000055,0.004011,0.135585,1.050089,2.719359,781.52,39.70,highres
2.999351,35070922570,-0.047002,-0.084452,-9.846470,0.001346,0.002389,0.003706,0.135585,1.050089,2.719359,781.53,39.70,highres
3.018831,35070944995,-0.050593,-0.066496,-9.842876,0.000125,0.000556,0.004011,0.135585,1.050089,2.719359,781.53,39.70,highres
3.038604,35070959651,-0.056579,-0.071284,-9.833302,0.001346,0.001778,0.004622,0.135585,1.050089,2.719359,781.53,39.70,highres
3.059620,35070974808,-0.056579,-0.080860,-9.835695,0.000125,0.000862,0.003706,0.148888,1.048821,2.718879,781.53,39.70,highres
3.079470,35070995069,-0.054184,-0.071284,-9.834497,-0.000792,0.000862,0.004316,0.148888,1.048821,2.718879,781.53,39.70,highres
3.099217,35071024479,-0.054184,-0.076072,-9.836893,-0.000792,0.001167,0.004316,0.154442,1.046910,2.719076,781.53,39.70,highres
3.119580,35071042224,-0.047002,-0.067693,-9.842878,-0.000181,0.001778,0.004927,0.154442,1.046910,2.719076,781.53,39.70,highres
3.141326,35071064958,-0.055381,-0.074875,-9.827316,-0.000486,-0.001276,0.003400,0.154442,1.046910,2.719076,781.53,39.70,highres
3.158170,35071084911,-0.047002,-0.072481,-9.835695,-0.000486,-0.000360,0.003400,0.154442,1.046910,2.719076,781.53,39.70,highres
3.179865,35071103118,-0.050593,-0.077269,-9.840485,0.000125,0.000251,0.004622,0.154442,1.046910,2.719076,781.53,39.70,highres
3.199564,35071124588,-0.052987,-0.085649,-9.841682,-0.000792,-0.000360,0.003706,0.151105,1.048691,2.716016,781.53,39.70,highres
3.218053,35071145045,-0.043411,-0.078466,-9.829710,-0.001097,-0.000971,0.003706,0.151105,1.048691,2.716016,781.53,39.70,highres
3.240483,35071165896,-0.042214,-0.064102,-9.835695,-0.000486,-0.000360,0.003400,0.159210,1.066803,2.724831,781.52,39.70,highres
3.260319,35071185427,-0.058973,-0.076072,-9.842878,-0.000181,-0.000360,0.004316,0.159210,1.066803,2.724831,781.52,39.70,highres
3.260319,35071204952,-0.039820,-0.070087,-9.836893,0.000736,0.000556,0.003095,0.159210,1.066803,2.724831,781.52,39.70,highres
3.301436,35071223263,-0.049396,-0.072481,-9.834499,0.000430,0.000556,0.002789,0.159210,1.066803,2.724831,781.52,39.70,highres
3.319840,35071245596,-0.042214,-0.068890,-9.828514,-0.000181,-0.000360,0.003400,0.159210,1.066803,2.724831,781.52,39.70,highres
3.341409,35071265128,-0.052987,-0.065299,-9.841681,0.001957,0.000556,0.002484,0.148202,1.049707,2.714251,781.52,39.70,highres
3.359750,35071285271,-0.058973,-0.068890,-9.836893,0.000430,0.000556,0.004316,0.148202,1.049707,2.714251,781.52,39.70,highres
3.378731,35071305108,-0.048199,-0.071284,-9.832104,0.000125,-0.000055,0.004011,0.145157,1.063865,2.725623,781.52,39.70,highres
3.399497,35071325071,-0.054184,-0.074875,-9.827316,0.001346,0.000556,0.004316,0.145157,1.063865,2.725623,781.53,39.70,highres
3.420430,35071345883,-0.047002,-0.068890,-9.835695,-0.000181,-0.000055,0.003400,0.145157,1.063865,2.725623,781.53,39.70,highres
3.440553,35071365218,-0.049396,-0.072481,-9.842878,-0.001402,0.000251,0.004622,0.145157,1.063865,2.725623,781.53,39.70,highres
3.459420,35071385896,-0.057776,-0.078466,-9.833302,-0.001097,0.000556,0.003706,0.145157,1.063865,2.725623,781.53,39.70,highres
3.478979,35071403305,-0.051790,-0.071284,-9.853651,-0.000181,-0.000360,0.002484,0.144232,1.055810,2.719102,781.53,39.70,highres
3.499508,35071423254,-0.054184,-0.071284,-9.836893,-0.000792,0.000862,0.003706,0.144232,1.055810,2.719102,781.53,39.70,highres
3.519124,35071445658,-0.056579,-0.070087,-9.840485,-0.000181,0.000556,0.004011,0.142939,1.061080,2.725380,781.53,39.70,highres
3.538200,35071466248,-0.054184,-0.070087,-9.834497,-0.000181,0.001472,0.004316,0.142939,1.061080,2.725380,781.53,39.70,highres
3.560270,35071488561,-0.051790,-0.078466,-9.834499,-0.000181,-0.000360,0.002484,0.142939,1.061080,2.725380,781.53,39.70,highres
3.579452,35071505384,-0.048196,-0.082055,-9.841710,-0.000181,-0.000369,0.003331,0.142939,1.061080,2.725380,781.53,39.70,highres
3.599246,35071525279,-0.045801,-0.070084,-9.818965,0.000125,0.000853,0.002415,0.142939,1.061080,2.725380,781.53,39.70,highres
3.618512,35071545961,-0.046998,-0.067690,-9.823752,0.000736,0.000853,0.003637,0.153708,1.052937,2.713104,781.53,39.70,highres
3.641192,35071565450,-0.045801,-0.064099,-9.834527,-0.000792,-0.000979,0.003026,0.153708,1.052937,2.713104,781.53,39.70,highres
3.654191,35071582640,-0.048196,-0.071281,-9.841708,0.001346,-0.000063,0.003942,0.150576,1.052076,2.713580,781.53,39.70,highres
3.679452,35071603685,-0.036225,-0.065296,-9.836921,0.000736,-0.000674,0.003942,0.150576,1.052076,2.713580,781.53,39.70,highres
3.698266,35071625097,-0.058969,-0.074872,-9.828541,-0.000486,0.000548,0.003026,0.150576,1.052076,2.713580,781.53,39.70,highres
3.720014,35071645789,-0.042210,-0.076069,-9.848891,0.000125,-0.000063,0.003026,0.150576,1.052076,2.713580,781.53,39.70,highres
3.740460,35071663217,-0.049393,-0.074872,-9.835722,-0.001097,-0.001590,0.003026,0.150576,1.052076,2.713580,781.53,39.70,highres
3.758422,35071683109,-0.050590,-0.073675,-9.844104,0.000736,-0.000674,0.002720,0.150069,1.047602,2.717173,781.53,39.70,highres
3.780133,35071703541,-0.044604,-0.084449,-9.840513,-0.000486,0.000242,0.003331,0.150069,1.047602,2.717173,781.53,39.70,highres
3.798602,35071715856,-0.050590,-0.071281,-9.841709,0.000430,-0.001285,0.003637,0.139517,1.056773,2.713067,781.53,39.70,highres
3.820287,35071741181,-0.050590,-0.068887,-9.829738,-0.000792,0.000853,0.003637,0.139517,1.056773,2.713067,781.53,39.70,highres
3.841101,35071763064,-0.052984,-0.072478,-9.834525,-0.000792,0.000242,0.003026,0.139517,1.056773,2.713067,781.53,39.70,highres
3.859245,35071782251,-0.049393,-0.073675,-9.848891,-0.000792,-0.000369,0.003026,0.139517,1.056773,2.713067,781.53,39.70,highres
3.878678,35071803147,-0.050590,-0.062902,-9.841710,0.000125,0.000853,0.002720,0.139517,1.056773,2.713067,781.53,39.70,highres
3.898353,35071823144,-0.041013,-0.060508,-9.836922,-0.000181,-0.000674,0.003637,0.149289,1.053972,2.714799,781.53,39.70,highres
3.920643,35071838554,-0.058969,-0.082055,-9.846498,-0.000486,0.000242,0.004858,0.149289,1.053972,2.714799,781.53,39.70,highres
3.940414,35071863599,-0.045801,-0.064099,-9.845301,-0.000181,0.000242,0.002415,0.149229,1.047284,2.707259,781.53,39.70,highres
3.959932,35071881637,-0.051787,-0.071281,-9.840512,-0.000181,0.001159,0.003637,0.149229,1.047284,2.707259,781.53,39.70,highres
3.980338,35071902084,-0.056575,-0.077267,-9.834528,-0.000181,-0.000063,0.004553,0.149229,1.047284,2.707259,781.53,39.70,highres
3.999384,35071918633,-0.052984,-0.072478,-9.835725,0.000430,0.000242,0.003637,0.149229,1.047284,2.707259,781.53,39.70,highres
4.018694,35071942034,-0.037422,-0.079661,-9.840512,0.000430,-0.000674,0.003637,0.149229,1.047284,2.707259,781.53,39.70,highres
4.040405,35071962271,-0.043407,-0.071281,-9.838118,0.000125,-0.001285,0.005164,0.150365,1.050219,2.718235,781.53,39.70,highres
4.059133,35071982723,-0.044604,-0.077267,-9.834527,0.000125,-0.000674,0.004248,0.150365,1.050219,2.718235,781.53,39.70,highres
4.080521,35072001571,-0.055378,-0.072478,-9.835723,0.000430,-0.000369,0.003331,0.155145,1.060925,2.707257,781.53,39.70,highres
4.099276,35072019077,-0.055378,-0.074872,-9.834528,-0.000181,0.000548,0.003637,0.155145,1.060925,2.707257,781.53,39.70,highres
4.120448,35072041511,-0.046999,-0.067690,-9.847694,0.000736,-0.000063,0.002720,0.155145,1.060925,2.707257,781.52,39.70,highres
4.140738,35072063336,-0.036225,-0.074872,-9.835724,-0.000486,-0.000674,0.003942,0.155145,1.060925,2.707257,781.52,39.70,highres
4.158774,35072081490,-0.041013,-0.079661,-9.838118,0.000736,0.000853,0.004248,0.155145,1.060925,2.707257,781.52,39.70,highres
4.178171,35072101782,-0.036225,-0.073675,-9.840512,0.001041,0.000242,0.004248,0.148504,1.049848,2.716087,781.52,39.70,highres
4.199094,35072122290,-0.048196,-0.071281,-9.830935,-0.000486,-0.000979,0.002415,0.148504,1.049848,2.716087,781.53,39.70,highres
4.219174,35072139183,-0.045801,-0.074872,-9.833329,-0.000792,0.000853,0.004553,0.152196,1.044174,2.714587,781.53,39.70,highres
4.239460,35072158872,-0.042210,-0.071281,-9.833330,0.001041,0.000548,0.002415,0.152196,1.044174,2.714587,781.53,39.70,highres
4.260599,35072180814,-0.056575,-0.076069,-9.846497,-0.000792,0.000242,0.004248,0.152196,1.044174,2.714587,781.53,39.70,highres
4.262888,35072196762,-0.043407,-0.068887,-9.841709,0.000125,-0.000674,0.002415,0.152196,1.044174,2.714587,781.52,39.70,highres
4.262888,35072221673,-0.049393,-0.077267,-9.839314,0.000430,0.000853,0.003331,0.152196,1.044174,2.714587,781.52,39.70,highres
4.319796,35072242152,-0.041013,-0.084449,-9.838119,-0.000181,0.001159,0.003942,0.146477,1.048554,2.717558,781.52,39.70,highres
4.341253,35072261568,-0.052984,-0.078464,-9.840512,0.001041,0.000242,0.003331,0.146477,1.048554,2.717558,781.52,39.70,highres
4.359001,35072281574,-0.048196,-0.068887,-9.846497,0.000430,0.000242,0.003331,0.155474,1.047553,2.714664,781.52,39.70,highres
4.379122,35072301103,-0.056575,-0.079661,-9.844103,0.000430,0.000853,0.003026,0.155474,1.047553,2.714664,781.52,39.70,highres
4.399619,35072322312,-0.036225,-0.071281,-9.841708,-0.000486,0.000242,0.003026,0.155474,1.047553,2.714664,781.52,39.70,highres
4.420899,35072341801,-0.052984,-0.070084,-9.827344,0.000430,-0.000674,0.002415,0.155474,1.047553,2.714664,781.52,39.70,highres
4.440277,35072359059,-0.056575,-0.070084,-9.824949,-0.000792,-0.000369,0.003637,0.155474,1.047553,2.714664,781.52,39.70,highres
4.459532,35072381517,-0.088895,-0.065296,-9.816571,0.001346,-0.001285,0.003026,0.147631,1.048731,2.720404,781.52,39.70,highres
4.478941,35072401753,-0.029043,-0.092828,-9.830936,-0.001403,-0.002812,0.003331,0.147631,1.048731,2.720404,781.52,39.70,highres
4.498849,35072418985,-0.043407,-0.067690,-9.803403,0.000430,-0.000063,0.003637,0.155129,1.042289,2.708147,781.52,39.70,highres
4.518642,35072436270,-0.062560,-0.074872,-9.789039,-0.001403,0.000853,0.003331,0.155129,1.042289,2.708147,781.52,39.70,highres
4.542712,35072456348,-0.039816,-0.078464,-9.832132,-0.000181,0.000242,0.003331,0.155129,1.042289,2.708147,781.52,39.70,highres
4.559026,35072479808,-0.057772,-0.068887,-9.846498,-0.002013,-0.000369,0.003637,0.155129,1.042289,2.708147,781.52,39.70,highres
4.578521,35072494076,-0.068545,-0.078464,-9.862058,0.002263,0.000853,0.003942,0.155129,1.042289,2.708147,781.52,39.70,highres
4.599315,35072516536,-0.045804,-0.066496,-9.857587,-0.000491,0.001461,0.003273,0.153253,1.047241,2.713984,781.52,39.70,highres
4.619563,35072537211,-0.058972,-0.066496,-9.859982,0.000731,0.002072,0.002357,0.153253,1.047241,2.713984,781.52,39.70,highres
4.639669,35072558511,-0.049396,-0.071284,-9.846813,0.000425,0.000240,0.004189,0.142326,1.051589,2.715028,781.52,39.70,highres
4.659849,35072576829,-0.056578,-0.068890,-9.846814,0.000425,-0.001288,0.003579,0.142326,1.051589,2.715028,781.52,39.70,highres
4.679083,35072596473,-0.044607,-0.076072,-9.836040,0.002563,0.000850,0.003579,0.142326,1.051589,2.715028,781.52,39.70,highres
4.699541,35072619005,-0.043410,-0.076072,-9.834844,0.000120,0.000850,0.002968,0.142326,1.051589,2.715028,781.52,39.70,highres
4.719599,35072631180,-0.037425,-0.074875,-9.831252,0.000120,0.000240,0.002357,0.142326,1.051589,2.715028,781.52,39.70,highres
4.742323,35072660371,-0.055381,-0.070087,-9.842025,0.000731,-0.000066,0.004189,0.151098,1.050530,2.720001,781.52,39.70,highres
4.758763,35072678699,-0.054184,-0.071284,-9.834844,-0.000491,0.000240,0.004495,0.151098,1.050530,2.720001,781.52,39.70,highres
4.779217,35072699270,-0.047001,-0.085648,-9.837237,-0.000491,0.000850,0.003884,0.151432,1.057965,2.714715,781.52,39.70,highres
4.799544,35072716461,-0.049396,-0.077269,-9.843224,0.000425,0.000850,0.003273,0.151432,1.057965,2.714715,781.52,39.70,highres
4.820151,35072738589,-0.031440,-0.067693,-9.851602,0.000120,-0.000066,0.004189,0.151432,1.057965,2.714715,781.52,39.70,highres
4.839396,35072760740,-0.082913,-0.064102,-9.865967,-0.001407,0.001156,0.002968,0.151432,1.057965,2.714715,781.53,39.70,highres
4.859652,35072780344,-0.103263,-0.073678,-9.836040,-0.005073,-0.014727,0.005411,0.151432,1.057965,2.714715,781.53,39.70,highres
4.879807,35072799030,0.029610,-0.084451,-9.761823,-0.008127,-0.004036,0.004495,0.150439,1.051370,2.719425,781.53,39.70,highres
4.899283,35072820356,-0.044607,-0.064102,-9.803721,-0.004462,-0.000066,0.003579,0.150439,1.051370,2.719425,781.53,39.70,highres
4.919005,35072836772,-0.042213,-0.072481,-9.876740,-0.002018,-0.000982,0.002968,0.141933,1.044650,2.714834,781.52,39.70,highres
4.940257,35072856677,-0.036228,-0.089240,-9.864771,-0.001102,0.002988,0.003578,0.141933,1.044650,2.714834,781.52,39.70,highres
4.959910,35072879348,-0.057775,-0.084451,-9.850404,0.002258,0.002378,0.002662,0.141933,1.044650,2.714834,781.52,39.70,highres
4.980707,35072897640,-0.037425,-0.084451,-9.842026,-0.000491,0.001767,0.003884,0.141933,1.044650,2.714834,781.52,39.70,highres
4.999882,35072916974,-0.031440,-0.070087,-9.851600,0.000731,0.001156,0.003578,0.141933,1.044650,2.714834,781.52,39.70,highres
5.018868,35072936989,-0.043410,-0.076072,-9.828859,0.000425,-0.003731,0.005106,0.148386,1.048134,2.713144,781.52,39.70,highres
5.042227,35072957379,-0.017075,-0.077269,-9.837237,0.000425,0.002683,0.004495,0.148386,1.048134,2.713144,781.52,39.70,highres
5.058913,35072978011,-0.054184,-0.086845,-9.842024,-0.000186,0.001767,0.003273,0.149502,1.052088,2.707393,781.52,39.70,highres
5.079296,35072996923,-0.051790,-0.077269,-9.849208,-0.001407,0.000545,0.004189,0.149502,1.052088,2.707393,781.53,39.70,highres
5.099102,35073021938,-0.050593,-0.073678,-9.845615,-0.000186,-0.003120,0.002662,0.149502,1.052088,2.707393,781.53,39.70,highres
5.120136,35073042972,-0.056578,-0.074875,-9.867163,0.001341,-0.000982,0.003578,0.149502,1.052088,2.707393,781.53,39.70,highres
5.140308,35073064294,-0.051790,-0.089240,-9.831251,-0.000491,0.002072,0.003578,0.149502,1.052088,2.707393,781.53,39.70,highres
5.159819,35073084920,-0.042213,-0.070087,-9.831252,0.001341,0.001461,0.002968,0.153789,1.048827,2.717428,781.53,39.70,highres
5.179660,35073104406,-0.042213,-0.076072,-9.848009,-0.001407,-0.002204,0.003578,0.150913,1.042918,2.724601,781.53,39.70,highres
5.184828,35073124626,-0.067351,-0.076072,-9.856390,-0.001102,0.001461,0.003578,0.150913,1.042918,2.724601,781.53,39.70,highres
5.219725,35073145291,-0.047001,-0.073678,-9.848011,-0.000797,0.002072,0.004495,0.150913,1.042918,2.724601,781.53,39.70,highres
5.239460,35073166509,-0.058972,-0.071284,-9.832449,-0.000797,0.001767,0.004495,0.150913,1.042918,2.724601,781.53,39.70,highres
5.260863,35073185103,-0.047001,-0.074875,-9.837237,-0.000491,0.000240,0.003273,0.150913,1.042918,2.724601,781.53,39.70,highres
5.262095,35073205794,-0.058972,-0.071284,-9.832449,0.000120,-0.000066,0.002357,0.150913,1.042918,2.724601,781.53,39.70,highres
5.262095,35073225145,-0.050593,-0.082057,-9.834844,0.000425,-0.001288,0.003273,0.146362,1.051758,2.720165,781.53,39.70,highres
5.319784,35073242371,-0.052987,-0.082057,-9.836040,-0.000186,-0.000066,0.003273,0.132512,1.057742,2.732422,781.53,39.70,highres
5.339014,35073264853,-0.057775,-0.065299,-9.838435,0.000731,0.001767,0.004189,0.132512,1.057742,2.732422,781.53,39.70,highres
5.359310,35073284729,-0.052987,-0.086845,-9.798932,0.000120,-0.001593,0.002357,0.132512,1.057742,2.732422,781.53,39.70,highres
5.378531,35073304936,-0.032637,-0.060510,-9.824070,-0.003851,-0.003120,0.004189,0.132512,1.057742,2.732422,781.53,39.70,highres
5.398756,35073322178,-0.041016,-0.073678,-9.857588,-0.004462,-0.002509,0.002662,0.132512,1.057742,2.732422,781.52,39.70,highres
5.419362,35073342167,-0.055381,-0.086845,-9.906665,-0.001102,-0.003120,0.002357,0.132512,1.057742,2.732422,781.52,39.70,highres
5.442528,35073360273,-0.014681,-0.085648,-9.839631,0.001647,0.002988,0.003884,0.145706,1.055317,2.720662,781.52,39.70,highres
5.459508,35073378201,-0.105657,-0.060510,-9.816887,-0.003546,-0.002509,0.004800,0.151361,1.065370,2.718198,781.52,39.70,highres
5.479156,35073395068,-0.033834,-0.078466,-9.803720,-0.002324,0.001767,0.003273,0.151361,1.065370,2.718198,781.52,39.70,highres
5.499059,35073415054,-0.031440,-0.066496,-9.816888,-0.002629,0.001461,0.002662,0.151361,1.065370,2.718198,781.52,39.70,highres
5.519980,35073438076,-0.048198,-0.064102,-9.797735,-0.002324,-0.000371,0.003884,0.151361,1.065370,2.718198,781.52,39.70,highres
5.539753,35073457639,-0.030243,-0.072481,-9.846814,0.000120,-0.000982,0.005106,0.151361,1.065370,2.718198,781.52,39.70,highres
5.559140,35073477049,-0.060169,-0.083254,-9.838435,0.000731,0.000850,0.003273,0.151361,1.065370,2.718198,781.52,39.85,highres
5.578856,35073497436,-0.036228,-0.085648,-9.832449,-0.000797,0.001767,0.005411,0.144077,1.058187,2.719343,781.52,39.85,highres
5.599552,35073519908,-0.049406,-0.071284,-9.839973,-0.001102,0.000232,0.003519,0.138907,1.063020,2.721918,781.52,39.85,highres
5.619468,35073538256,-0.042224,-0.079664,-9.847157,-0.000186,-0.000685,0.003824,0.138907,1.063020,2.721918,781.52,39.85,highres
5.640413,35073559899,-0.063771,-0.076072,-9.863914,-0.000186,-0.001296,0.001992,0.138907,1.063020,2.721918,781.52,40.00,highres
5.660073,35073577853,-0.075741,-0.096422,-9.842367,0.001341,-0.000685,0.002908,0.138907,1.063020,2.721918,781.52,40.00,highres
5.679295,35073595862,-0.045815,-0.065299,-9.811245,0.001036,-0.000379,0.002908,0.138907,1.063020,2.721918,781.52,40.00,highres
5.698972,35073615695,-0.051800,-0.074875,-9.831594,0.001036,-0.002212,0.003519,0.138907,1.063020,2.721918,781.52,40.00,highres
5.719040,35073643184,-0.039920,-0.076901,-9.846051,0.001036,-0.001601,0.004130,0.150865,1.059252,2.713883,781.52,40.00,highres
5.720694,35073665200,-0.050603,-0.072481,-9.842367,0.000730,-0.000685,0.003213,0.166086,1.055257,2.699249,781.52,40.00,highres
5.759622,35073682300,-0.041027,-0.073678,-9.874687,0.000120,-0.001906,0.003824,0.166086,1.055257,2.699249,781.52,40.00,highres
5.778518,35073703029,-0.048209,-0.079664,-9.847157,0.001036,-0.000685,0.004130,0.166086,1.055257,2.699249,781.52,40.00,highres
5.798446,35073723257,-0.050603,-0.068890,-9.837579,0.001341,-0.001906,0.004435,0.166086,1.055257,2.699249,781.53,40.00,highres
5.813962,35073745768,-0.038633,-0.080861,-9.832792,0.000120,0.000232,0.003824,0.166086,1.055257,2.699249,781.53,40.00,highres
5.841246,35073765866,-0.051800,-0.076072,-9.843564,-0.000797,0.001148,0.005046,0.166086,1.055257,2.699249,781.53,40.00,highres
5.860137,35073782759,-0.067362,-0.076072,-9.831594,0.000425,0.000232,0.003519,0.153188,1.055648,2.718363,781.53,40.00,highres
5.878740,35073803267,-0.050603,-0.072481,-9.849550,0.000120,0.000842,0.003213,0.130484,1.051446,2.715002,781.52,40.00,highres
5.898771,35073823276,-0.048209,-0.077270,-9.837580,0.001341,0.000842,0.004130,0.130484,1.051446,2.715002,781.52,40.00,highres
5.919843,35073840827,-0.051800,-0.074875,-9.835184,-0.000797,0.000232,0.003519,0.130484,1.051446,2.715002,781.52,40.00,highres
5.941506,35073861668,-0.055391,-0.064102,-9.838778,0.000425,0.000537,0.003519,0.130484,1.051446,2.715002,781.52,40.00,highres
5.958629,35073883066,-0.051800,-0.073678,-9.843565,0.000730,0.000842,0.003519,0.130484,1.051446,2.715002,781.52,40.00,highres
5.978702,35073899504,-0.037951,-0.079996,-9.828685,0.000425,-0.001296,0.003213,0.130484,1.051446,2.715002,781.52,40.00,highres
5.999733,35073922465,-0.047012,-0.071284,-9.839973,0.000730,0.000232,0.003519,0.149429,1.048481,2.714343,781.52,40.00,highres
6.020354,35073941165,-0.048209,-0.065299,-9.842367,-0.001102,0.000537,0.004435,0.151979,1.049487,2.714296,781.52,40.00,highres
6.041523,35073963056,-0.048209,-0.072481,-9.842368,0.000425,0.000537,0.003824,0.151979,1.049487,2.714296,781.52,40.00,highres
6.059476,35073978008,-0.042224,-0.062905,-9.832791,0.000730,-0.000990,0.002908,0.151979,1.049487,2.714296,781.52,40.00,highres
6.079852,35074002979,-0.052997,-0.070087,-9.832790,-0.000491,-0.000990,0.003519,0.151979,1.049487,2.714296,781.52,40.00,highres
6.099925,35074022017,-0.047012,-0.074875,-9.843563,-0.002935,0.001148,0.003824,0.151979,1.049487,2.714296,781.52,40.00,highres
6.120753,35074040942,-0.042224,-0.067693,-9.829201,-0.001408,0.000537,0.003519,0.151979,1.049487,2.714296,781.51,40.00,highres
6.139640,35074060972,-0.044618,-0.070087,-9.836383,-0.001408,-0.000379,0.002297,0.148198,1.051304,2.718962,781.51,40.00,highres
6.160148,35074075096,-0.058982,-0.089240,-9.843565,-0.000797,0.000232,0.003824,0.169233,1.055349,2.706667,781.51,40.00,highres
6.179675,35074103152,-0.045815,-0.070087,-9.826806,-0.000491,0.001148,0.002602,0.169233,1.055349,2.706667,781.51,40.00,highres
6.199308,35074118422,-0.039830,-0.073678,-9.847157,0.001036,0.000232,0.004740,0.169233,1.055349,2.706667,781.51,40.00,highres
6.219060,35074138307,-0.049406,-0.082058,-9.842368,0.000425,0.001759,0.003213,0.169233,1.055349,2.706667,781.51,40.00,highres
6.240170,35074155754,-0.042224,-0.078467,-9.837580,0.000120,0.002675,0.002602,0.169233,1.055349,2.706667,781.51,40.00,highres
6.261320,35074178235,-0.047012,-0.073678,-9.836382,-0.000797,0.001759,0.002602,0.169233,1.055349,2.706667,781.51,40.00,highres
6.263927,35074198583,-0.070953,-0.073678,-9.839973,0.000120,-0.001296,0.003519,0.155056,1.054005,2.710486,781.52,40.00,highres
6.263927,35074216369,-0.038633,-0.088043,-9.813639,-0.001408,0.004202,0.004740,0.146837,1.068407,2.709550,781.52,40.00,highres
6.320277,35074238500,-0.032647,-0.077270,-9.830398,-0.000797,0.000842,0.003824,0.146837,1.068407,2.709550,781.52,40.00,highres
6.341029,35074266065,-0.055391,-0.078467,-9.845961,0.000271,-0.000513,0.003092,0.146837,1.068407,2.709550,781.52,40.00,highres
6.359100,35074285904,-0.050603,-0.076072,-9.848352,-0.000491,-0.000379,0.004740,0.146837,1.068407,2.709550,781.52,40.00,highres
6.381031,35074306122,-0.054194,-0.077270,-9.839973,-0.001102,-0.000685,0.003519,0.146837,1.068407,2.709550,781.52,40.00,highres
6.399293,35074321864,-0.098485,-0.043752,-9.862718,-0.000797,0.000537,0.002908,0.146837,1.068407,2.709550,781.52,40.00,highres
6.420322,35074342864,-0.087712,-0.072481,-9.920176,-0.001713,-0.004961,0.004435,0.149057,1.060327,2.718171,781.52,40.00,highres
6.440591,35074360944,-0.025465,-0.068890,-9.844762,-0.002935,-0.002517,0.004435,0.163223,1.056440,2.720534,781.52,40.00,highres
6.458540,35074378547,-0.060179,-0.072481,-9.844763,-0.000797,-0.000685,0.002297,0.163223,1.056440,2.720534,781.52,40.00,highres
6.479293,35074398256,-0.057785,-0.066496,-9.862719,-0.001713,-0.003434,0.002908,0.163223,1.056440,2.720534,781.52,40.00,highres
6.499430,35074423452,-0.035041,-0.082058,-9.860323,0.001341,-0.001296,0.004130,0.163223,1.056440,2.720534,781.52,40.00,highres
6.519451,35074441026,-0.054194,-0.078467,-9.847157,0.002258,0.002064,0.002297,0.163223,1.056440,2.720534,781.52,40.00,highres
6.543537,35074466053,-0.050603,-0.077270,-9.837581,-0.000797,0.000842,0.002602,0.163223,1.056440,2.720534,781.52,40.00,highres
6.559585,35074483499,-0.062574,-0.077270,-9.853142,0.001647,0.002370,0.004740,0.153484,1.052607,2.717336,781.52,40.00,highres
6.579579,35074501788,-0.051800,-0.074875,-9.849550,0.001341,0.001759,0.003519,0.158049,1.046541,2.722673,781.52,40.00,highres
6.601026,35074526060,-0.038632,-0.079654,-9.846204,0.000731,0.000520,0.002543,0.158049,1.046541,2.722673,781.52,40.00,highres
6.620343,35074544106,-0.045814,-0.068881,-9.834234,0.001037,0.000214,0.002849,0.158049,1.046541,2.722673,781.52,40.00,highres
6.639580,35074563564,-0.045814,-0.071275,-9.834235,0.000426,-0.001008,0.003765,0.158049,1.046541,2.722673,781.52,40.00,highres
6.658651,35074583398,-0.038632,-0.072472,-9.834234,-0.000185,0.000520,0.004376,0.158049,1.046541,2.722673,781.52,40.00,highres
6.678703,35074604227,-0.032647,-0.071275,-9.842614,-0.000490,0.000214,0.002849,0.158049,1.046541,2.722673,781.51,40.00,highres
6.700266,35074623881,-0.001524,-0.073669,-9.833037,-0.000185,0.002047,0.003765,0.151516,1.049572,2.715240,781.51,40.00,highres
6.720677,35074644362,-0.033844,-0.100004,-9.827053,-0.001101,-0.000702,0.003460,0.160177,1.029057,2.726414,781.51,40.00,highres
6.740655,35074663726,-0.011100,-0.082048,-9.849795,-0.002628,0.001741,0.002543,0.160177,1.029057,2.726414,781.51,40.00,highres
6.760680,35074686613,-0.044617,-0.084442,-9.825855,-0.003545,0.000520,0.002543,0.160177,1.029057,2.726414,781.51,40.00,highres
6.779729,35074703526,-0.043420,-0.079654,-9.871342,-0.002017,0.001130,0.003460,0.160177,1.029057,2.726414,781.51,40.00,highres
6.799071,35074723608,-0.060179,-0.074866,-9.867752,-0.000796,-0.000397,0.003460,0.160177,1.029057,2.726414,781.51,40.00,highres
6.819378,35074743352,-0.055391,-0.088034,-9.868949,0.001648,0.001741,0.003154,0.160177,1.029057,2.726414,781.51,40.00,highres
6.840356,35074763380,-0.047012,-0.083245,-9.830644,0.001342,-0.000397,0.003765,0.156434,1.053831,2.721519,781.51,40.00,highres
6.860521,35074784385,-0.054194,-0.095216,-9.807899,0.002564,-0.002840,0.003460,0.140516,1.037639,2.715883,781.51,40.00,highres
6.880405,35074798962,-0.050603,-0.065290,-9.831841,0.002259,-0.001618,0.003154,0.140516,1.037639,2.715883,781.51,40.00,highres
6.898882,35074823729,-0.041026,-0.074866,-9.852189,0.001342,-0.000702,0.003460,0.140516,1.037639,2.715883,781.51,40.00,highres
6.920129,35074843697,-0.050603,-0.072472,-9.848597,-0.001712,0.002963,0.002543,0.140516,1.037639,2.715883,781.51,40.00,highres
6.941915,35074866525,-0.052997,-0.076063,-9.845009,-0.000490,-0.000702,0.004071,0.140516,1.037639,2.715883,781.51,40.00,highres
6.960701,35074884033,-0.044617,-0.066487,-9.830643,-0.001712,0.000520,0.003460,0.140516,1.037639,2.715883,781.51,40.00,highres
6.980393,35074903789,-0.042223,-0.068881,-9.830644,-0.000796,-0.000397,0.003460,0.153505,1.049073,2.715113,781.51,40.00,highres
6.998838,35074926210,-0.050603,-0.073669,-9.835432,-0.000185,0.000520,0.003154,0.138874,1.063074,2.717141,781.52,40.00,highres
7.019899,35074943644,-0.057785,-0.078457,-9.847403,-0.000796,-0.000397,0.003154,0.138874,1.063074,2.717141,781.52,40.00,highres
7.040197,35074962268,-0.055391,-0.077260,-9.840219,0.000426,0.000825,0.003154,0.138874,1.063074,2.717141,781.52,40.00,highres
7.060505,35074981402,-0.049406,-0.074866,-9.834236,-0.000490,0.000520,0.003154,0.138874,1.063074,2.717141,781.52,40.00,highres
7.080234,35074999476,-0.047012,-0.086836,-9.841416,0.001342,-0.000397,0.003765,0.138874,1.063074,2.717141,781.52,40.00,highres
7.100232,35075022802,-0.013494,-0.071275,-9.859372,0.001953,0.001436,0.003765,0.138874,1.063074,2.717141,781.52,40.00,highres
7.119247,35075039106,-0.070953,-0.078457,-9.862964,0.002564,0.000214,0.004376,0.146041,1.055104,2.719490,781.52,40.00,highres
7.140180,35075059695,-0.048209,-0.077260,-9.854586,0.001037,-0.000091,0.002849,0.124473,1.052537,2.728869,781.52,40.00,highres
7.159652,35075077481,-0.056588,-0.077260,-9.850994,0.000426,0.001130,0.004681,0.124473,1.052537,2.728869,781.52,40.00,highres
7.180113,35075100331,-0.062573,-0.074866,-9.849796,-0.001712,-0.000702,0.002543,0.124473,1.052537,2.728869,781.52,40.00,highres
7.199421,35075114159,-0.048209,-0.067684,-9.830644,-0.000185,-0.000091,0.002238,0.124473,1.052537,2.728869,781.52,40.00,highres
7.220523,35075139542,-0.054194,-0.080851,-9.833037,-0.000490,-0.002229,0.002849,0.124473,1.052537,2.728869,781.52,40.00,highres
7.239546,35075156518,-0.063770,-0.070078,-9.842612,-0.001407,0.000214,0.003154,0.124473,1.052537,2.728869,781.52,40.00,highres
7.259263,35075176830,-0.032647,-0.066487,-9.840220,0.000426,0.001436,0.001933,0.152036,1.054642,2.714727,781.52,40.00,highres
7.274148,35075199163,-0.068558,-0.071275,-9.835433,-0.000490,-0.000702,0.003154,0.151201,1.062132,2.721293,781.52,40.00,highres
7.274148,35075217063,-0.049406,-0.084442,-9.834234,0.001342,-0.000091,0.003154,0.151201,1.062132,2.721293,781.52,40.00,highres
7.321194,35075239271,-0.048209,-0.078457,-9.848598,0.000731,0.000825,0.002849,0.151201,1.062132,2.721293,781.52,40.00,highres
7.344161,35075260464,-0.056588,-0.078457,-9.846205,0.000731,-0.000091,0.004681,0.151201,1.062132,2.721293,781.52,40.00,highres
7.360125,35075277030,-0.039829,-0.064093,-9.846207,-0.000490,0.000520,0.003460,0.151201,1.062132,2.721293,781.52,40.00,highres
7.379259,35075297148,-0.051800,-0.076063,-9.835432,-0.000185,0.002047,0.003154,0.151201,1.062132,2.721293,781.52,40.00,highres
7.399537,35075316999,-0.047012,-0.071275,-9.833037,0.000731,0.001130,0.003765,0.146026,1.055130,2.717286,781.51,40.00,highres
7.419756,35075337820,-0.041026,-0.074866,-9.834234,-0.001101,0.000825,0.003460,0.143521,1.061584,2.730611,781.51,40.00,highres
7.441326,35075359497,-0.041026,-0.061698,-9.813885,0.000121,-0.001618,0.003765,0.143521,1.061584,2.730611,781.51,40.00,highres
7.459756,35075377047,-0.049406,-0.074866,-9.800717,-0.000796,0.004490,0.003765,0.143521,1.061584,2.730611,781.51,40.00,highres
7.479228,35075399206,-0.048209,-0.071275,-9.807899,-0.003239,0.002963,0.004376,0.143521,1.061584,2.730611,781.51,40.00,highres
7.501303,35075420291,-0.045814,-0.070078,-9.834234,-0.002323,0.002047,0.003154,0.143521,1.061584,2.730611,781.51,40.00,highres
7.520177,35075439771,-0.045814,-0.090428,-9.836629,0.000731,0.000825,0.003154,0.143521,1.061584,2.730611,781.51,40.00,highres
7.541663,35075457286,-0.048209,-0.079654,-9.825855,0.000121,0.001436,0.002849,0.142795,1.054432,2.719183,781.51,40.00,highres
7.559026,35075480162,-0.047012,-0.076063,-9.833038,0.000731,0.001130,0.003460,0.131678,1.045115,2.716144,781.51,40.00,highres
7.580232,35075496770,-0.048209,-0.074866,-9.841417,-0.000185,-0.000091,0.002543,0.131678,1.045115,2.716144,781.51,40.00,highres
7.600264,35075522015,-0.044617,-0.074866,-9.835432,-0.000798,0.000379,0.003159,0.131678,1.045115,2.716144,781.51,40.00,highres
7.620130,35075541815,-0.047010,-0.072468,-9.844970,-0.000798,-0.000401,0.004012,0.131678,1.045115,2.716144,781.51,40.00,highres
7.642426,35075565316,-0.042222,-0.088030,-9.844970,0.000424,0.001737,0.003401,0.131678,1.045115,2.716144,781.51,40.00,highres
7.660354,35075584803,-0.058981,-0.086833,-9.835393,-0.000492,-0.001012,0.002790,0.131678,1.045115,2.716144,781.51,40.00,highres
7.681598,35075603192,-0.043419,-0.085636,-9.838984,0.000118,-0.000096,0.004012,0.149398,1.051896,2.716195,781.51,40.00,highres
7.699506,35075620245,-0.066163,-0.074862,-9.852152,0.001340,-0.002234,0.003707,0.154731,1.043229,2.716758,781.51,40.00,highres
7.720213,35075642550,-0.044616,-0.062892,-9.846167,0.001646,-0.000096,0.003096,0.154731,1.043229,2.716758,781.51,40.00,highres
7.740412,35075661989,-0.038631,-0.082045,-9.834197,0.000118,0.000820,0.003096,0.154731,1.043229,2.716758,781.51,40.00,highres
7.759423,35075680344,-0.044616,-0.080848,-9.836589,-0.000187,-0.000707,0.002790,0.154731,1.043229,2.716758,781.51,40.00,highres
7.779482,35075700511,-0.049404,-0.076059,-9.821032,0.000729,-0.000401,0.003401,0.154731,1.043229,2.716758,781.51,40.00,highres
7.800749,35075719525,-0.061375,-0.073665,-9.842576,0.000118,0.000820,0.004012,0.154731,1.043229,2.716758,781.51,40.00,highres
7.820020,35075737588,-0.050602,-0.078453,-9.852151,0.000729,-0.000401,0.002485,0.151136,1.051405,2.714150,781.51,40.00,highres
7.839195,35075757161,-0.049404,-0.053315,-9.844970,-0.000187,0.000820,0.003096,0.157846,1.043375,2.719399,781.51,40.00,highres
7.859779,35075777480,-0.057784,-0.066483,-9.815043,-0.002325,0.005402,0.004318,0.157846,1.043375,2.719399,781.51,40.00,highres
7.879335,35075797166,-0.036237,-0.076059,-9.746812,-0.003547,0.008151,0.004623,0.157846,1.043375,2.719399,781.52,40.00,highres
7.898626,35075822107,-0.047010,-0.088030,-9.776739,-0.004158,0.002042,0.002790,0.157846,1.043375,2.719399,781.52,40.00,highres
7.919884,35075844940,-0.048207,-0.064089,-9.838985,0.002562,0.003875,0.003401,0.157846,1.043375,2.719399,781.52,40.00,highres
7.941158,35075865059,-0.062572,-0.041345,-9.811453,0.004394,0.007234,0.003707,0.157846,1.043375,2.719399,781.52,40.00,highres
7.961569,35075882374,-0.045813,-0.083242,-9.809058,0.001035,-0.000707,0.004318,0.152362,1.047512,2.716974,781.52,40.00,highres
7.979274,35075902431,-0.041025,-0.077256,-9.827014,-0.005379,0.000515,0.003401,0.158503,1.054546,2.722897,781.52,40.00,highres
8.000550,35075925402,-0.036237,-0.079650,-9.812651,-0.005990,0.003875,0.007983,0.158503,1.054546,2.722897,781.52,40.00,highres
8.019757,35075944691,-0.032646,-0.095212,-9.819832,0.001340,0.013648,0.002790,0.158503,1.054546,2.722897,781.52,40.00,highres
8.040744,35075963677,-0.090104,-0.117956,-9.884472,0.001951,0.008456,0.002179,0.158503,1.054546,2.722897,781.52,40.00,highres
8.059510,35075980704,-0.045813,-0.089227,-9.843773,0.002256,0.004180,0.003707,0.158503,1.054546,2.722897,781.52,40.00,highres
8.080550,35075999404,-0.038631,-0.071271,-9.830605,0.000118,-0.002845,0.004318,0.158503,1.054546,2.722897,781.52,40.00,highres
8.099486,35076015509,-0.054193,-0.076059,-9.848560,0.002256,0.000515,0.002790,0.150380,1.049951,2.719259,781.52,40.00,highres
8.120398,35076042357,-0.049404,-0.072468,-9.828211,-0.001409,-0.000096,0.004012,0.130883,1.059543,2.707265,781.52,40.00,highres
8.141416,35076062726,-0.063769,-0.077256,-9.822226,-0.001103,-0.000707,0.003707,0.130883,1.059543,2.707265,781.52,40.00,highres
8.159904,35076079715,-0.066163,-0.076059,-9.822227,0.001340,0.000209,0.004012,0.130883,1.059543,2.707265,781.52,40.00,highres
8.179039,35076101003,-0.050602,-0.088030,-9.832999,0.000118,-0.000096,0.003707,0.130883,1.059543,2.707265,781.52,40.00,highres
8.199919,35076121274,-0.062572,-0.064089,-9.844970,0.001035,-0.000096,0.003707,0.130883,1.059543,2.707265,781.52,40.00,highres
8.219535,35076141549,-0.043419,-0.085636,-9.831801,-0.000493,-0.001012,0.003096,0.130883,1.059543,2.707265,781.52,40.00,highres
8.241007,35076163268,-0.054193,-0.090424,-9.838984,-0.000798,-0.000401,0.002790,0.153151,1.053220,2.715824,781.52,40.00,highres
8.261873,35076181355,-0.044616,-0.076059,-9.840181,0.000729,-0.000707,0.003096,0.160002,1.052964,2.728948,781.52,40.00,highres
8.265239,35076197796,-0.043419,-0.044936,-9.858138,0.001340,0.000209,0.004318,0.160002,1.052964,2.728948,781.52,40.00,highres
8.265239,35076221370,-0.050602,-0.059301,-9.844970,0.000424,0.002042,0.004318,0.160002,1.052964,2.728948,781.52,40.00,highres
8.319318,35076241977,-0.050602,-0.065286,-9.841378,-0.000798,0.000820,0.002790,0.160002,1.052964,2.728948,781.52,40.00,highres
8.343625,35076262511,-0.047010,-0.071271,-9.843773,0.000729,0.001431,0.004623,0.160002,1.052964,2.728948,781.52,40.00,highres
8.359732,35076272025,-0.019478,-0.089227,-9.858138,0.000729,0.001126,0.003707,0.160002,1.052964,2.728948,781.52,40.00,highres
8.380563,35076295029,-0.038631,-0.073665,-9.832999,0.001035,0.002653,0.003096,0.157205,1.053444,2.716339,781.52,40.00,highres
8.400145,35076314863,-0.050602,-0.070074,-9.836591,0.000729,-0.000096,0.003401,0.148507,1.070045,2.714099,781.52,40.00,highres
8.420612,35076345404,-0.058981,-0.068877,-9.850955,-0.000798,0.000209,0.002180,0.148507,1.070045,2.714099,781.52,40.00,highres
8.440846,35076362668,-0.056587,-0.071271,-9.849758,-0.001103,0.000820,0.003096,0.148507,1.070045,2.714099,781.52,40.00,highres
8.460169,35076383339,-0.043419,-0.070074,-9.844970,0.001035,0.000209,0.002790,0.148507,1.070045,2.714099,781.52,40.00,highres
8.479666,35076403428,-0.042222,-0.072468,-9.846166,-0.000187,-0.000096,0.003707,0.148507,1.070045,2.714099,781.52,40.00,highres
8.492809,35076425764,-0.050602,-0.073665,-9.840181,-0.000493,0.000209,0.004318,0.148507,1.070045,2.714099,781.52,40.00,highres
8.520966,35076443141,-0.042222,-0.072468,-9.830605,0.000729,0.001126,0.003096,0.149828,1.049727,2.717345,781.51,40.00,highres
8.541527,35076465287,-0.033843,-0.076059,-9.837788,-0.000187,0.001126,0.004012,0.152863,1.038416,2.709731,781.51,40.00,highres
8.561904,35076485393,-0.042222,-0.077256,-9.837788,0.001035,-0.000401,0.004012,0.152863,1.038416,2.709731,781.51,40.00,highres
8.580269,35076503932,-0.057784,-0.083242,-9.835394,-0.000187,0.000209,0.002790,0.152863,1.038416,2.709731,781.51,40.00,highres
8.599636,35076525448,-0.048207,-0.070074,-9.837789,0.000118,0.001431,0.003401,0.152863,1.038416,2.709731,781.52,40.00,highres
8.620376,35076543290,-0.050615,-0.064085,-9.836745,0.001035,-0.000405,0.003649,0.152863,1.038416,2.709731,781.52,40.00,highres
8.640742,35076563076,-0.043432,-0.071267,-9.833156,0.000729,0.001428,0.003649,0.152863,1.038416,2.709731,781.52,40.00,highres
8.662211,35076582853,-0.042235,-0.068873,-9.837943,-0.000187,-0.000405,0.003038,0.151364,1.052097,2.715567,781.52,40.00,highres
8.680761,35076603366,-0.057797,-0.079646,-9.837944,-0.000187,0.001428,0.003038,0.145697,1.060211,2.722198,781.52,40.00,highres
8.699019,35076621451,-0.054206,-0.068873,-9.843928,0.001340,0.002039,0.003038,0.145697,1.060211,2.722198,781.52,40.00,highres
8.719885,35076645689,-0.043432,-0.080843,-9.845125,-0.000187,0.000206,0.003649,0.145697,1.060211,2.722198,781.52,40.00,highres
8.740030,35076665715,-0.048221,-0.073661,-9.842732,-0.000187,0.000512,0.003038,0.145697,1.060211,2.722198,781.52,40.00,highres
8.760264,35076685728,-0.047024,-0.062888,-9.846321,-0.000492,0.000206,0.003038,0.145697,1.060211,2.722198,781.52,40.00,highres
8.773849,35076702894,-0.048221,-0.079646,-9.841534,0.000119,0.001122,0.003954,0.145697,1.060211,2.722198,781.52,40.00,highres
8.799197,35076726400,-0.049418,-0.073661,-9.848716,0.000119,0.000817,0.003343,0.153136,1.049852,2.711446,781.52,40.00,highres
8.820452,35076746342,-0.042235,-0.072464,-9.846322,-0.000187,0.000817,0.003343,0.144760,1.043372,2.724117,781.52,40.00,highres
8.841311,35076764697,-0.056600,-0.076055,-9.847520,0.000729,0.000512,0.002733,0.144760,1.043372,2.724117,781.52,40.00,highres
8.853174,35076779506,-0.048221,-0.073661,-9.840336,-0.000187,0.000512,0.002733,0.144760,1.043372,2.724117,781.52,40.00,highres
8.880221,35076801792,-0.050615,-0.077252,-9.836745,-0.000187,0.000817,0.003954,0.144760,1.043372,2.724117,781.52,40.00,highres
8.901090,35076818820,-0.053009,-0.059297,-9.845125,0.000424,0.001122,0.003954,0.144760,1.043372,2.724117,781.52,40.00,highres
8.919188,35076833355,-0.047024,-0.068873,-9.839139,0.001035,-0.000710,0.004565,0.144760,1.043372,2.724117,781.52,40.00,highres
8.941829,35076851993,-0.068570,-0.072464,-9.827168,0.000119,-0.000099,0.003038,0.148643,1.054366,2.713080,781.52,40.00,highres
8.959370,35076873279,-0.036250,-0.076055,-9.824775,-0.003241,-0.000099,0.002733,0.155993,1.052099,2.715276,781.52,40.00,highres
8.980089,35076896593,-0.042235,-0.066479,-9.833155,0.001340,0.001428,0.003343,0.155993,1.052099,2.715276,781.52,40.00,highres
9.000304,35076913885,-0.050615,-0.068873,-9.833157,0.000119,0.001122,0.003954,0.155993,1.052099,2.715276,781.53,40.00,highres
9.020762,35076932805,-0.047024,-0.077252,-9.845125,0.001035,0.001733,0.003343,0.155993,1.052099,2.715276,781.53,40.00,highres
9.040291,35076957216,-0.055403,-0.066479,-9.849914,0.000424,-0.001321,0.003038,0.155993,1.052099,2.715276,781.53,40.00,highres
9.059782,35076975946,-0.063782,-0.070070,-9.831958,-0.000798,-0.001016,0.003954,0.155993,1.052099,2.715276,781.53,40.00,highres
9.080328,35076993402,-0.047024,-0.066479,-9.841535,-0.000798,-0.001016,0.003649,0.163148,1.056567,2.709390,781.52,40.00,highres
9.099254,35077010663,-0.048221,-0.064085,-9.837943,-0.000492,0.000817,0.002733,0.163148,1.056567,2.709390,781.52,40.00,highres
9.120257,35077044058,-0.044629,-0.072464,-9.837943,0.000119,-0.000710,0.002427,0.163148,1.056567,2.709390,781.52,40.00,highres
9.142868,35077063601,-0.057797,-0.085632,-9.829563,0.000119,0.001122,0.003038,0.163148,1.056567,2.709390,781.52,40.00,highres
9.159281,35077083259,-0.050615,-0.080843,-9.841535,-0.000492,-0.000099,0.003343,0.163148,1.056567,2.709390,781.52,40.00,highres
9.180795,35077104870,-0.049418,-0.060494,-9.847520,0.000729,-0.000710,0.003038,0.163148,1.056567,2.709390,781.52,40.00,highres
9.200462,35077124656,-0.049418,-0.048523,-9.851110,-0.003852,0.000206,0.004260,0.163148,1.056567,2.709390,781.52,40.00,highres
9.220983,35077142085,-0.055403,-0.059297,-9.859489,-0.002936,0.000817,0.004260,0.141333,1.052049,2.716285,781.52,40.00,highres
9.239711,35077164050,-0.051812,-0.070070,-9.834352,-0.001409,0.000512,0.003038,0.141333,1.052049,2.716285,781.52,40.00,highres
9.261898,35077186768,-0.047024,-0.074858,-9.836746,0.001951,-0.001016,0.003954,0.141333,1.052049,2.716285,781.52,40.00,highres
9.264385,35077204132,-0.045827,-0.077252,-9.841535,0.001340,-0.000099,0.003038,0.141333,1.052049,2.716285,781.52,40.00,highres
9.264385,35077221932,-0.033856,-0.088026,-9.843928,0.001646,0.000512,0.003038,0.141333,1.052049,2.716285,781.52,40.00,highres
9.320670,35077244151,-0.048221,-0.077252,-9.851110,-0.000492,0.001428,0.003343,0.141333,1.052049,2.716285,781.52,40.00,highres
9.342799,35077266577,-0.048221,-0.074858,-9.851111,0.000729,0.000512,0.003343,0.141333,1.052049,2.716285,781.52,40.00,highres
9.360201,35077282235,-0.035053,-0.070070,-9.843928,0.000119,0.000206,0.003954,0.149855,1.068717,2.697862,781.52,40.00,highres
9.380326,35077301972,-0.042235,-0.085632,-9.845125,0.000424,-0.000099,0.003343,0.149855,1.068717,2.697862,781.52,40.00,highres
9.399190,35077319190,-0.048221,-0.077252,-9.842731,-0.000492,0.000512,0.003343,0.149855,1.068717,2.697862,781.52,40.00,highres
9.419479,35077339313,-0.048221,-0.072464,-9.839140,0.000424,-0.000405,0.003649,0.149855,1.068717,2.697862,781.52,40.00,highres
9.440852,35077359423,-0.045827,-0.053311,-9.839140,-0.001103,0.000206,0.002733,0.149855,1.068717,2.697862,781.52,40.00,highres
9.459803,35077382321,-0.057797,-0.082041,-9.845126,0.000729,0.000817,0.003343,0.149855,1.068717,2.697862,781.52,40.00,highres
9.480126,35077398980,-0.050615,-0.067676,-9.845125,-0.000187,0.000206,0.002733,0.149855,1.068717,2.697862,781.53,40.00,highres
9.501273,35077423586,-0.042235,-0.056902,-9.835549,0.000424,0.000817,0.003038,0.156477,1.044739,2.732452,781.53,40.00,highres
9.518931,35077441497,-0.050615,-0.070070,-9.839139,-0.000492,0.000512,0.003038,0.156477,1.044739,2.732452,781.53,40.00,highres
9.540596,35077461674,-0.048221,-0.068873,-9.841535,0.000119,-0.000405,0.003649,0.156477,1.044739,2.732452,781.53,40.00,highres
9.559231,35077479353,-0.044629,-0.065282,-9.845124,0.000119,0.002039,0.003649,0.156477,1.044739,2.732452,781.53,40.00,highres
9.580006,35077503017,-0.049418,-0.077252,-9.841535,0.001340,-0.000405,0.003038,0.156477,1.044739,2.732452,781.53,40.00,highres
9.599565,35077519705,-0.048221,-0.083238,-9.833155,0.001035,0.001122,0.002733,0.156477,1.044739,2.732452,781.53,40.00,highres
9.620419,35077539194,-0.056600,-0.078449,-9.831958,0.000729,-0.000099,0.003038,0.156477,1.044739,2.732452,781.53,40.00,highres
9.640301,35077559384,-0.053008,-0.077248,-9.838362,0.001637,-0.000117,0.003285,0.139542,1.045354,2.733891,781.52,40.00,highres
9.659462,35077579664,-0.050614,-0.079642,-9.849134,0.000110,-0.000423,0.003285,0.139542,1.045354,2.733891,781.52,40.00,highres
9.679270,35077602169,-0.043432,-0.076051,-9.846740,-0.000196,0.000188,0.003285,0.139542,1.045354,2.733891,781.52,40.00,highres
9.700002,35077622861,-0.062585,-0.068868,-9.847939,-0.001723,-0.000117,0.002063,0.139542,1.045354,2.733891,781.52,40.00,highres
9.720144,35077642272,-0.037447,-0.091612,-9.845544,-0.001112,0.002326,0.002674,0.139542,1.045354,2.733891,781.52,40.00,highres
9.739367,35077660150,-0.051811,-0.070065,-9.839560,-0.000196,0.000494,0.003285,0.139542,1.045354,2.733891,781.52,40.00,highres
9.759846,35077679081,-0.054205,-0.074854,-9.844347,0.000720,0.001410,0.002980,0.139542,1.045354,2.733891,781.52,40.00,highres
9.779650,35077701984,-0.045826,-0.072460,-9.831180,0.001637,0.000188,0.002674,0.147418,1.050832,2.713562,781.52,40.00,highres
9.799273,35077721794,-0.045826,-0.080839,-9.832376,0.000720,-0.000117,0.002674,0.147418,1.050832,2.713562,781.52,40.00,highres
9.819355,35077739811,-0.050614,-0.074854,-9.843149,0.000415,0.000188,0.003285,0.147418,1.050832,2.713562,781.52,40.00,highres
9.841914,35077758981,-0.042235,-0.058095,-9.839559,-0.001418,0.001105,0.002980,0.147418,1.050832,2.713562,781.52,40.00,highres
9.859243,35077782888,-0.044629,-0.066474,-9.834769,0.000415,0.000799,0.004202,0.147418,1.050832,2.713562,781.52,40.00,highres
9.879641,35077799100,-0.049417,-0.052110,-9.840755,-0.000807,0.001105,0.002369,0.147418,1.050832,2.713562,781.52,40.00,highres
9.899631,35077821834,-0.055402,-0.076051,-9.826391,0.000415,0.000799,0.003285,0.147418,1.050832,2.713562,781.52,40.00,highres
9.921249,35077840285,-0.048220,-0.080839,-9.839560,0.001026,0.000494,0.003285,0.146081,1.052142,2.731392,781.52,40.00,highres
9.940036,35077861865,-0.066176,-0.073657,-9.838362,0.001026,-0.000117,0.003285,0.146081,1.052142,2.731392,781.52,40.00,highres
9.958956,35077881874,-0.043432,-0.066474,-9.835967,0.001026,-0.000423,0.002064,0.146081,1.052142,2.731392,781.53,40.00,highres
9.979744,35077902497,-0.047023,-0.074854,-9.829982,0.000720,0.000799,0.003285,0.146081,1.052142,2.731392,781.53,40.00,highres
9.998826,35077922172,-0.043432,-0.077248,-9.833573,0.001331,-0.000423,0.002674,0.146081,1.052142,2.731392,781.53,40.00,highres
10.020197,35077942014,-0.048220,-0.079642,-9.851528,0.000415,0.000799,0.002980,0.146081,1.052142,2.731392,781.53,40.00,highres
10.039752,35077959304,-0.051811,-0.074854,-9.840755,-0.000196,-0.000728,0.002674,0.146081,1.052142,2.731392,781.52,40.00,highres
10.059773,35077976972,-0.053008,-0.076051,-9.837164,-0.000196,0.001410,0.003896,0.150966,1.059020,2.713243,781.52,40.00,highres
10.079907,35077997270,-0.045826,-0.080839,-9.835968,-0.000807,0.001410,0.003896,0.150966,1.059020,2.713243,781.52,40.00,highres
10.100881,35078017038,-0.051811,-0.078445,-9.840755,0.000720,0.001105,0.003591,0.150966,1.059020,2.713243,781.52,40.00,highres
10.120233,35078036954,-0.033855,-0.072460,-9.838362,0.001026,-0.000423,0.004202,0.150966,1.059020,2.713243,781.52,40.00,highres
10.140400,35078057361,-0.057796,-0.076051,-9.833573,0.000415,0.001715,0.003591,0.150966,1.059020,2.713243,781.52,40.00,highres
10.159758,35078080306,-0.054205,-0.077248,-9.850332,0.000720,0.000188,0.002064,0.150966,1.059020,2.713243,781.52,40.00,highres
10.179619,35078098047,-0.047023,-0.086824,-9.850332,0.001026,-0.000117,0.002369,0.150966,1.059020,2.713243,781.52,40.00,highres
10.200193,35078117444,-0.045826,-0.091612,-9.856317,0.000415,0.000188,0.002674,0.155228,1.051161,2.723350,781.52,40.00,highres
10.219528,35078144602,-0.055402,-0.088021,-9.846740,-0.001723,-0.001033,0.004202,0.155228,1.051161,2.723350,781.52,40.00,highres
10.242586,35078165145,-0.044629,-0.059292,-9.851529,-0.001418,0.001715,0.003896,0.155228,1.051161,2.723350,781.52,40.00,highres
10.259057,35078180688,-0.056599,-0.067671,-9.861105,-0.000807,-0.001339,0.003591,0.155228,1.051161,2.723350,781.52,40.00,highres
10.273375,35078199737,-0.042235,-0.067671,-9.843149,-0.002945,0.000188,0.004202,0.155228,1.051161,2.723350,781.52,40.00,highres
10.273375,35078217396,-0.045826,-0.073657,-9.841954,-0.001723,0.000188,0.002674,0.155228,1.051161,2.723350,781.52,40.00,highres
10.319862,35078237577,-0.047023,-0.089218,-9.844348,-0.002334,-0.000728,0.003285,0.155228,1.051161,2.723350,781.52,40.00,highres
10.339453,35078267318,-0.055402,-0.073657,-9.832375,0.000415,0.000494,0.002674,0.155388,1.054400,2.720255,781.52,40.00,highres
10.359946,35078282411,-0.058994,-0.083233,-9.840755,0.000415,-0.000423,0.003591,0.155388,1.054400,2.720255,781.52,40.00,highres
10.379270,35078304893,-0.055402,-0.073657,-9.839560,-0.000807,0.001105,0.002674,0.155388,1.054400,2.720255,781.52,40.00,highres
10.401321,35078325829,-0.045826,-0.078445,-9.839558,0.000720,0.000188,0.002369,0.155388,1.054400,2.720255,781.52,40.00,highres
10.419337,35078344712,-0.044629,-0.079642,-9.838362,-0.000196,0.000188,0.003285,0.155388,1.054400,2.720255,781.52,40.00,highres
10.441586,35078364778,-0.045826,-0.079642,-9.849133,0.001026,-0.000728,0.002980,0.155388,1.054400,2.720255,781.52,40.00,highres
10.459460,35078385281,-0.054205,-0.072460,-9.843149,0.001026,-0.001033,0.004202,0.155388,1.054400,2.720255,781.52,40.00,highres
10.478947,35078402420,-0.050614,-0.068868,-9.839561,0.000415,0.000494,0.002674,0.137462,1.064511,2.723826,781.52,40.00,highres
10.498866,35078418077,-0.047023,-0.066474,-9.837164,0.001637,0.000188,0.002064,0.137462,1.064511,2.723826,781.52,40.00,highres
10.522970,35078442528,-0.054205,-0.083233,-9.846741,-0.001418,-0.001339,0.003591,0.137462,1.064511,2.723826,781.52,40.00,highres
10.540768,35078462550,-0.042235,-0.067671,-9.846741,-0.001723,-0.001950,0.003591,0.137462,1.064511,2.723826,781.52,40.00,highres
10.559035,35078480263,-0.045826,-0.078445,-9.835968,-0.000807,0.000494,0.001758,0.137462,1.064511,2.723826,781.52,40.00,highres
10.578994,35078502840,-0.047023,-0.080839,-9.839560,-0.000807,-0.001339,0.002980,0.137462,1.064511,2.723826,781.52,40.00,highres
10.599988,35078521512,-0.049417,-0.068868,-9.837165,-0.000196,0.000494,0.003591,0.137462,1.064511,2.723826,781.52,40.00,highres
10.620987,35078542602,-0.054205,-0.070065,-9.840756,-0.001723,0.000188,0.003591,0.139769,1.053741,2.700681,781.52,40.00,highres
10.639694,35078560685,-0.048226,-0.082037,-9.848532,-0.000513,-0.000750,0.003843,0.139769,1.053741,2.700681,781.52,40.00,highres
10.659446,35078578116,-0.043438,-0.078446,-9.850925,0.000404,0.000166,0.003538,0.139769,1.053741,2.700681,781.52,40.00,highres
10.678756,35078602245,-0.041043,-0.077249,-9.840151,-0.001429,-0.000445,0.002010,0.139769,1.053741,2.700681,781.52,40.00,highres
10.701111,35078621112,-0.055408,-0.084432,-9.830576,0.000404,-0.000139,0.002010,0.139769,1.053741,2.700681,781.52,40.00,highres
10.720350,35078638595,-0.054211,-0.074855,-9.842546,0.000098,0.000166,0.002316,0.139769,1.053741,2.700681,781.52,40.00,highres
10.739449,35078657814,-0.084137,-0.080840,-9.878457,-0.000207,0.001999,0.002927,0.139769,1.053741,2.700681,781.52,40.00,highres
10.760533,35078680944,-0.027876,-0.072461,-9.792271,-0.001123,0.004442,0.003232,0.150112,1.042918,2.720757,781.52,40.00,highres
10.779081,35078695588,-0.038649,-0.086826,-9.832969,0.001931,0.001083,0.002316,0.150112,1.042918,2.720757,781.52,40.00,highres
10.798777,35078718596,-0.050620,-0.076052,-9.823395,0.000404,0.002610,0.002927,0.150112,1.042918,2.720757,781.52,40.00,highres
10.819718,35078738952,-0.044635,-0.076052,-9.823393,-0.000818,0.001693,0.004454,0.150112,1.042918,2.720757,781.52,40.00,highres
10.840459,35078757930,-0.043438,-0.070067,-9.832971,-0.001429,-0.000445,0.002927,0.150112,1.042918,2.720757,781.52,40.00,highres
10.852899,35078775209,-0.054211,-0.077249,-9.830577,-0.000513,-0.001055,0.002621,0.150112,1.042918,2.720757,781.52,40.00,highres
10.880139,35078805375,-0.050620,-0.066476,-9.843743,-0.000207,-0.001055,0.002316,0.150112,1.042918,2.720757,781.52,40.00,highres
10.900321,35078825344,-0.057802,-0.066476,-9.852122,-0.000513,-0.000445,0.002927,0.134593,1.067458,2.730827,781.52,40.00,highres
10.920237,35078842983,-0.056605,-0.070067,-9.853319,-0.002040,-0.002583,0.002927,0.134593,1.067458,2.730827,781.52,40.00,highres
10.940515,35078865285,-0.056605,-0.067673,-9.844940,-0.000818,-0.000445,0.002927,0.134593,1.067458,2.730827,781.52,40.00,highres
10.960237,35078882922,-0.058999,-0.065279,-9.854516,-0.000818,0.000472,0.003843,0.134593,1.067458,2.730827,781.52,40.00,highres
10.978867,35078902868,-0.057802,-0.067673,-9.843743,-0.000818,0.000777,0.003538,0.134593,1.067458,2.730827,781.52,40.00,highres
10.999992,35078922926,-0.051817,-0.065279,-9.844940,-0.000207,0.000166,0.004759,0.134593,1.067458,2.730827,781.51,40.00,highres
11.020954,35078945480,-0.057802,-0.082037,-9.850925,-0.000818,0.001388,0.003232,0.134593,1.067458,2.730827,781.51,40.00,highres
11.041016,35078963928,-0.044635,-0.074855,-9.855714,0.000404,0.000777,0.002621,0.150028,1.068426,2.723335,781.51,40.00,highres
11.060083,35078983169,-0.058999,-0.056899,-9.854517,-0.000207,0.000166,0.003232,0.150028,1.068426,2.723335,781.51,40.00,highres
11.079167,35079005879,-0.038649,-0.077249,-9.831772,0.000098,0.000166,0.002010,0.150028,1.068426,2.723335,781.51,40.00,highres
11.101191,35079025758,-0.045832,-0.065279,-9.831773,-0.000818,-0.000750,0.003232,0.150028,1.068426,2.723335,781.51,40.00,highres
11.120699,35079041401,-0.036255,-0.070067,-9.836560,0.001015,0.002915,0.002316,0.150028,1.068426,2.723335,781.51,40.00,highres
11.142278,35079058873,-0.049423,-0.060491,-9.834167,0.001015,0.003526,0.003538,0.150028,1.068426,2.723335,781.51,40.00,highres
11.160586,35079081664,-0.035058,-0.065279,-9.835363,-0.001734,-0.001361,0.003232,0.150028,1.068426,2.723335,781.50,40.00,highres
11.181349,35079102516,-0.060196,-0.061688,-9.841349,-0.002345,-0.004415,0.002927,0.158611,1.054365,2.738817,781.50,40.00,highres
11.200762,35079123440,-0.045832,-0.071264,-9.858108,0.000404,-0.004110,0.002621,0.158611,1.054365,2.738817,781.50,40.00,highres
11.220549,35079143294,-0.050620,-0.072461,-9.858108,-0.000207,-0.003193,0.004759,0.158611,1.054365,2.738817,781.50,40.00,highres
11.239613,35079160815,-0.060196,-0.074855,-9.835362,0.002236,-0.002277,0.003232,0.158611,1.054365,2.738817,781.51,40.00,highres
11.259457,35079179523,-0.039846,-0.060491,-9.824591,0.000098,0.000472,0.003538,0.158611,1.054365,2.738817,781.51,40.00,highres
11.274785,35079199045,-0.051817,-0.052111,-9.812620,-0.003872,0.001083,0.002621,0.158611,1.054365,2.738817,781.51,40.00,highres
11.274785,35079222077,-0.055408,-0.056899,-9.810227,-0.005705,-0.001361,0.002621,0.158611,1.054365,2.738817,781.51,40.00,highres
11.320863,35079235833,-0.045832,-0.084432,-9.818606,-0.000207,0.000166,0.003538,0.151449,1.041608,2.702927,781.52,40.00,highres
11.341784,35079263174,-0.055408,-0.071264,-9.852122,-0.000818,0.001083,0.003538,0.151449,1.041608,2.702927,781.52,40.00,highres
11.360965,35079283378,-0.051817,-0.072461,-9.840153,0.000709,0.001693,0.003538,0.151449,1.041608,2.702927,781.52,40.00,highres
11.379938,35079299046,-0.063787,-0.077249,-9.834167,0.001625,0.002304,0.002621,0.151449,1.041608,2.702927,781.52,40.00,highres
11.399826,35079316852,-0.069773,-0.071264,-9.836561,0.000709,0.001083,0.003843,0.151449,1.041608,2.702927,781.51,40.00,highres
11.421114,35079341800,-0.060196,-0.062885,-9.826984,-0.003567,-0.000445,0.004148,0.151449,1.041608,2.702927,781.51,40.00,highres
11.441199,35079358345,-0.048226,-0.062885,-9.842546,-0.002956,-0.000750,0.003538,0.146611,1.053464,2.723374,781.51,40.00,highres
11.459508,35079381083,-0.050620,-0.070067,-9.843742,-0.000207,0.001083,0.003843,0.158165,1.061660,2.727213,781.51,40.00,highres
11.480460,35079400772,-0.050620,-0.049717,-9.831772,-0.000513,-0.000445,0.003843,0.158165,1.061660,2.727213,781.52,40.00,highres
11.499706,35079418389,-0.049423,-0.084432,-9.840153,-0.000818,0.001388,0.002010,0.158165,1.061660,2.727213,781.52,40.00,highres
11.520854,35079439034,-0.051817,-0.083235,-9.853319,-0.000818,-0.001972,0.003232,0.158165,1.061660,2.727213,781.52,40.00,highres
11.542140,35079461388,-0.050620,-0.082037,-9.844939,-0.001429,0.000472,0.003843,0.158165,1.061660,2.727213,781.52,40.00,highres
11.560119,35079482173,-0.045832,-0.074855,-9.836560,0.002542,0.000472,0.002316,0.158165,1.061660,2.727213,781.51,40.00,highres
11.580350,35079501787,-0.045832,-0.068870,-9.823393,-0.000818,0.003831,0.003538,0.147777,1.052577,2.713964,781.51,40.00,highres
11.599169,35079522622,-0.070970,-0.060491,-9.860502,-0.000818,0.000777,0.003843,0.138232,1.051003,2.722378,781.51,40.00,highres
11.622552,35079543500,-0.069773,-0.072461,-9.864092,-0.003261,0.001388,0.007814,0.138232,1.051003,2.722378,781.51,40.00,highres
11.639780,35079558877,-0.044635,-0.065279,-9.843742,-0.003567,0.000472,0.015144,0.138232,1.051003,2.722378,781.52,40.00,highres
11.660551,35079583555,0.009229,-0.065277,-9.826412,0.001932,0.001364,0.009287,0.138232,1.051003,2.722378,781.52,40.00,highres
11.681743,35079602269,-0.047032,-0.070065,-9.844370,-0.001122,-0.001079,0.004400,0.138232,1.051003,2.722378,781.52,40.00,highres
11.699278,35079621742,-0.043441,-0.076050,-9.857536,0.000405,0.000754,0.001957,0.138232,1.051003,2.722378,781.52,40.00,highres
11.719816,35079639174,-0.041047,-0.072459,-9.853946,0.001016,-0.000774,0.002567,0.153178,1.049781,2.717682,781.52,40.00,highres
11.741761,35079662431,-0.049426,-0.072459,-9.840779,-0.000206,0.002281,0.004400,0.148992,1.050878,2.717271,781.52,40.00,highres
11.759485,35079681643,-0.054214,-0.071262,-9.841975,0.001627,0.001364,0.003178,0.148992,1.050878,2.717271,781.52,40.00,highres
11.779904,35079702502,-0.060199,-0.065277,-9.847960,0.002238,-0.001690,0.000735,0.148992,1.050878,2.717271,781.52,40.00,highres
11.799623,35079719426,-0.064988,-0.064080,-9.834793,-0.000817,-0.001384,0.003178,0.148992,1.050878,2.717271,781.53,40.00,highres
11.821016,35079738846,-0.038653,-0.071262,-9.838384,-0.001733,-0.000774,0.001957,0.148992,1.050878,2.717271,781.53,40.00,highres
11.840497,35079761747,-0.055411,-0.064080,-9.832398,-0.000817,-0.001384,0.003178,0.148992,1.050878,2.717271,781.53,40.00,highres
11.859068,35079781384,-0.048229,-0.080839,-9.832398,-0.002649,-0.001079,0.003789,0.149741,1.050381,2.717917,781.53,40.00,highres
11.880301,35079802919,-0.062594,-0.065277,-9.801276,-0.002955,0.004419,0.003789,0.155765,1.049851,2.701676,781.53,40.00,highres
11.899550,35079822258,-0.056608,-0.048518,-9.835990,-0.002344,-0.001384,0.007760,0.155765,1.049851,2.701676,781.53,40.00,highres
11.920813,35079838844,-0.059002,-0.061686,-9.824019,-0.002649,0.002586,0.020588,0.155765,1.049851,2.701676,781.53,40.00,highres
11.941242,35079862194,-0.066185,-0.078445,-9.845567,-0.002038,-0.002606,0.036776,0.155765,1.049851,2.701676,781.53,40.00,highres
11.960793,35079879338,-0.012317,-0.085627,-9.826413,-0.001733,0.001059,0.034943,0.155765,1.049851,2.701676,781.53,40.00,highres
11.979946,35079901591,-0.045835,-0.064080,-9.839581,0.001627,0.000754,0.003789,0.155765,1.049851,2.701676,781.53,40.00,highres
11.999756,35079922505,-0.056608,-0.058095,-9.837188,0.000405,-0.001995,0.005316,0.151899,1.050127,2.716062,781.53,40.00,highres
12.020997,35079939401,-0.044638,-0.074853,-9.822823,0.000405,0.001059,0.002567,0.154825,1.058384,2.718114,781.53,40.00,highres
12.042350,35079962037,-0.048229,-0.068868,-9.834791,0.000711,-0.000774,0.001346,0.154825,1.058384,2.718114,781.54,40.00,highres
12.060141,35079982250,-0.059002,-0.078445,-9.844370,-0.000511,-0.001079,0.002567,0.154825,1.058384,2.718114,781.54,40.00,highres
12.080023,35079999205,-0.073367,-0.070065,-9.841974,0.001321,0.002281,0.003789,0.154825,1.058384,2.718114,781.54,40.00,highres
12.099370,35080017595,-0.043441,-0.070065,-9.838385,0.000100,0.002281,0.002567,0.154825,1.058384,2.718114,781.54,40.00,highres
12.121931,35080034034,-0.037455,-0.068868,-9.826414,0.000711,0.000754,0.004400,0.154825,1.058384,2.718114,781.54,40.00,highres
12.140284,35080054336,-0.039850,-0.061686,-9.851552,-0.000206,0.000448,0.003178,0.148390,1.056750,2.712817,781.54,40.00,highres
12.159911,35080072318,-0.035061,-0.073656,-9.847960,-0.000817,0.001670,0.003178,0.150086,1.055645,2.724434,781.54,40.00,highres
12.180400,35080103702,-0.062594,-0.068868,-9.858734,0.001016,-0.000774,0.001957,0.150086,1.055645,2.724434,781.54,40.00,highres
12.201494,35080125153,-0.048229,-0.062883,-9.852748,0.001016,0.000754,0.003178,0.150086,1.055645,2.724434,781.53,40.00,highres
12.220786,35080141631,-0.042244,-0.056898,-9.845567,0.000405,-0.000468,0.002873,0.150086,1.055645,2.724434,781.53,40.00,highres
12.240587,35080164606,-0.050623,-0.060489,-9.840777,0.000405,0.000143,0.003484,0.150086,1.055645,2.724434,781.53,40.00,highres
12.259681,35080181942,-0.036258,-0.076050,-9.832399,0.000405,0.001059,0.002262,0.150086,1.055645,2.724434,781.53,40.00,highres
12.279046,35080204532,-0.059002,-0.044927,-9.826414,0.002238,0.001670,0.004400,0.148172,1.054116,2.720730,781.53,40.00,highres
12.279046,35080222334,-0.007529,-0.076050,-9.838384,-0.001428,0.001059,0.003484,0.146587,1.063567,2.712600,781.53,40.00,highres
12.320207,35080241832,-0.060199,-0.089218,-9.881477,0.002543,0.002281,0.002873,0.146587,1.063567,2.712600,781.53,40.00,highres
12.342326,35080260213,-0.051820,-0.070065,-9.876692,0.002238,0.001059,0.003178,0.146587,1.063567,2.712600,781.53,40.00,highres
12.359503,35080276562,-0.048229,-0.089218,-9.855145,0.001016,0.000754,0.003178,0.146587,1.063567,2.712600,781.53,40.00,highres
12.379945,35080296683,-0.054214,-0.068868,-9.847960,-0.000511,-0.000774,0.001957,0.146587,1.063567,2.712600,781.53,40.00,highres
12.399311,35080316951,-0.050623,-0.058095,-9.845567,-0.000511,-0.000774,0.003484,0.146587,1.063567,2.712600,781.53,40.00,highres
12.421914,35080334370,-0.045835,-0.072459,-9.849159,-0.000511,-0.001384,0.003789,0.150846,1.048043,2.716650,781.53,40.00,highres
12.440288,35080363979,-0.062594,-0.072459,-9.849157,0.002543,0.001059,0.002567,0.146187,1.055471,2.720337,781.53,40.00,highres
12.461728,35080381965,-0.045835,-0.061686,-9.861129,0.000711,-0.000468,0.003484,0.146187,1.055471,2.720337,781.53,40.00,highres
12.479611,35080399331,-0.059002,-0.061686,-9.839582,0.000100,-0.001079,0.003484,0.146187,1.055471,2.720337,781.53,40.00,highres
12.499767,35080419935,-0.026682,-0.061686,-9.831201,-0.001733,-0.000468,0.004095,0.146187,1.055471,2.720337,781.53,40.00,highres
12.521322,35080437231,-0.038653,-0.072459,-9.822824,0.000405,0.003808,0.002873,0.146187,1.055471,2.720337,781.54,40.00,highres
12.539519,35080461932,-0.053017,-0.074853,-9.818034,-0.001428,0.003197,0.003484,0.146187,1.055471,2.720337,781.54,40.00,highres
12.560456,35080483173,-0.044638,-0.083233,-9.856340,-0.000511,0.001059,0.002567,0.152359,1.051825,2.715667,781.54,40.00,highres
12.578963,35080500361,-0.043441,-0.079642,-9.840779,0.000100,-0.000468,0.002873,0.160992,1.046978,2.699840,781.54,40.00,highres
12.600683,35080519676,-0.053017,-0.061686,-9.837188,0.001016,-0.001079,0.003789,0.160992,1.046978,2.699840,781.54,40.00,highres
12.620494,35080542535,-0.048229,-0.080839,-9.844370,-0.001122,-0.000774,0.002873,0.160992,1.046978,2.699840,781.54,40.00,highres
12.643026,35080564612,-0.053017,-0.071262,-9.844370,0.000100,-0.000774,0.003178,0.160992,1.046978,2.699840,781.54,40.00,highres
12.661199,35080584549,-0.053018,-0.073653,-9.846070,-0.000809,-0.000179,0.004004,0.160992,1.046978,2.699840,781.54,40.00,highres
12.678937,35080607584,-0.027880,-0.060486,-9.853252,0.000412,-0.001095,0.002477,0.160992,1.046978,2.699840,781.53,40.00,highres
12.698843,35080622208,-0.039850,-0.079638,-9.848465,-0.000504,-0.000484,0.003393,0.152235,1.051421,2.718126,781.53,40.00,highres
12.720402,35080642453,-0.086535,-0.062880,-9.864026,0.001939,-0.005371,0.002477,0.156304,1.045030,2.706979,781.53,40.00,highres
12.741253,35080665158,-0.061397,-0.064077,-9.864026,0.001329,-0.001706,0.003393,0.156304,1.045030,2.706979,781.53,40.00,highres
12.760076,35080684605,-0.053018,-0.074850,-9.856845,0.000718,0.001959,0.003393,0.156304,1.045030,2.706979,781.53,40.00,highres
12.779752,35080702074,-0.051821,-0.067668,-9.849662,0.001023,0.000432,0.003088,0.156304,1.045030,2.706979,781.53,40.00,highres
12.801455,35080725191,-0.047033,-0.062880,-9.852056,-0.000809,0.000737,0.002782,0.156304,1.045030,2.706979,781.53,40.00,highres
12.821145,35080744748,-0.041047,-0.068865,-9.847268,0.000107,0.000432,0.002477,0.156304,1.045030,2.706979,781.53,40.00,highres
12.839629,35080764740,-0.053018,-0.061683,-9.837691,-0.000504,-0.000484,0.002171,0.151208,1.047652,2.720374,781.53,40.00,highres
12.859584,35080782489,-0.050624,-0.067668,-9.840085,-0.000504,-0.001095,0.002782,0.141311,1.052086,2.713101,781.53,40.00,highres
12.880051,35080802020,-0.044638,-0.073653,-9.848463,0.000107,0.000737,0.003393,0.141311,1.052086,2.713101,781.53,40.00,highres
12.891494,35080825596,-0.055412,-0.064077,-9.837691,-0.000809,0.000126,0.002782,0.141311,1.052086,2.713101,781.53,40.00,highres
12.921023,35080843121,-0.054215,-0.064077,-9.837690,-0.000504,-0.001401,0.004309,0.141311,1.052086,2.713101,781.54,40.00,highres
12.941552,35080865322,-0.053018,-0.072456,-9.842479,-0.000199,-0.001706,0.002171,0.141311,1.052086,2.713101,781.54,40.00,highres
12.961532,35080885245,-0.053018,-0.053303,-9.844873,-0.000504,-0.000179,0.002782,0.141311,1.052086,2.713101,781.54,40.00,highres
12.980798,35080897592,-0.033865,-0.073653,-9.835297,-0.000199,0.000737,0.003393,0.141311,1.052086,2.713101,781.54,40.00,highres
12.994932,35080925889,-0.055412,-0.073653,-9.835297,-0.000809,0.001348,0.004004,0.156500,1.049960,2.695968,781.53,40.00,highres
13.020716,35080937509,-0.053018,-0.072456,-9.841284,-0.001115,0.000737,0.003088,0.156500,1.049960,2.695968,781.53,40.00,highres
13.042351,35080962367,-0.050624,-0.058091,-9.837691,0.000412,-0.000484,0.003699,0.156500,1.049960,2.695968,781.53,40.00,highres
13.059349,35080983358,-0.048230,-0.070062,-9.847268,0.001023,0.000126,0.002782,0.156500,1.049960,2.695968,781.53,40.00,highres
13.079415,35080997462,-0.055412,-0.059288,-9.826917,0.000412,0.001348,0.003393,0.156500,1.049960,2.695968,781.53,40.00,highres
13.099787,35081014827,-0.056609,-0.068865,-9.844873,-0.000199,-0.000179,0.002171,0.156500,1.049960,2.695968,781.53,40.00,highres
13.120938,35081038689,-0.039850,-0.061683,-9.843676,-0.000504,0.001043,0.002171,0.156500,1.049960,2.695968,781.53,40.00,highres
13.141760,35081058701,-0.047033,-0.059288,-9.841282,-0.001115,0.000432,0.001866,0.134182,1.059380,2.736972,781.53,40.00,highres
13.159914,35081076776,-0.033865,-0.064077,-9.834099,0.000107,0.001348,0.001866,0.134182,1.059380,2.736972,781.52,40.00,highres
13.179971,35081097799,-0.053018,-0.058091,-9.832902,-0.000199,-0.001706,0.001866,0.134182,1.059380,2.736972,781.52,40.00,highres
13.199318,35081120416,-0.045836,-0.061683,-9.846070,0.000412,0.001043,0.002782,0.134182,1.059380,2.736972,781.52,40.00,highres
13.219744,35081135313,-0.056609,-0.066471,-9.846070,0.000412,0.000126,0.001255,0.134182,1.059380,2.736972,781.52,40.00,highres
13.243283,35081158160,-0.039850,-0.070062,-9.832902,-0.000504,0.000126,0.002477,0.134182,1.059380,2.736972,781.52,40.00,highres
13.259577,35081178878,-0.047716,-0.063607,-9.840040,0.000718,0.002264,0.002782,0.134182,1.059380,2.736972,781.52,40.00,highres
13.279886,35081198179,-0.039850,-0.071259,-9.836494,0.000107,0.000737,0.003699,0.140192,1.058290,2.723104,781.52,40.00,highres
13.279886,35081215230,-0.045836,-0.064077,-9.836494,-0.000199,0.000126,0.002477,0.140192,1.058290,2.723104,781.52,40.00,highres
13.320550,35081237954,-0.064988,-0.071259,-9.854449,-0.000504,-0.000484,0.002782,0.140192,1.058290,2.723104,781.52,40.00,highres
13.342202,35081258322,-0.044638,-0.064077,-9.840085,0.000718,-0.000790,0.002477,0.140192,1.058290,2.723104,781.52,40.00,highres
13.360554,35081275298,-0.049427,-0.054500,-9.834100,-0.000504,-0.001706,0.004920,0.140192,1.058290,2.723104,781.52,40.00,highres
13.379420,35081298174,-0.029077,-0.071259,-9.848464,0.000107,-0.000179,0.002782,0.140192,1.058290,2.723104,781.52,40.00,highres
13.400301,35081318379,-0.093717,-0.048515,-9.911907,0.000718,-0.004455,0.003393,0.140192,1.058290,2.723104,781.52,40.00,highres
13.421575,35081338075,-0.047033,-0.070062,-9.846070,0.001023,-0.003233,0.003699,0.158732,1.059422,2.716662,781.52,40.00,highres
13.441553,35081366138,-0.048230,-0.072456,-9.817342,-0.001115,0.000432,0.003393,0.158732,1.059422,2.716662,781.52,40.00,highres
13.459531,35081382855,-0.053018,-0.065274,-9.852056,-0.000504,0.000432,0.002171,0.158732,1.059422,2.716662,781.52,40.00,highres
13.480036,35081403749,-0.048230,-0.073653,-9.849662,-0.001115,-0.000179,0.003088,0.158732,1.059422,2.716662,781.52,40.00,highres
13.499595,35081415996,-0.042244,-0.060486,-9.838888,-0.000504,0.000432,0.001561,0.158732,1.059422,2.716662,781.52,40.00,highres
13.520913,35081435864,-0.050624,-0.071259,-9.847267,0.000412,0.000737,0.002782,0.158732,1.059422,2.716662,781.52,40.00,highres
13.539928,35081455459,-0.037456,-0.070062,-9.844873,-0.000199,0.000432,0.003088,0.158732,1.059422,2.716662,781.52,40.00,highres
13.560023,35081478322,-0.050624,-0.060486,-9.838887,0.000718,0.001043,0.002477,0.141205,1.048756,2.724156,781.52,39.70,highres
13.579513,35081504030,-0.049427,-0.067668,-9.846070,-0.000504,-0.000179,0.003393,0.141205,1.048756,2.724156,781.52,39.70,highres
13.600100,35081523776,-0.059003,-0.071259,-9.844873,0.000412,-0.000484,0.002782,0.141205,1.048756,2.724156,781.52,39.70,highres
13.620484,35081541534,-0.049427,-0.098791,-9.844873,0.000718,-0.000179,-0.000272,0.141205,1.048756,2.724156,781.52,39.70,highres
13.640957,35081566281,-0.047033,-0.097594,-9.901135,-0.003253,-0.001401,0.006753,0.141205,1.048756,2.724156,781.52,39.40,highres
13.659394,35081582991,-0.061405,-0.078438,-9.808067,0.004689,-0.000796,0.000900,0.141205,1.048756,2.724156,781.52,39.40,highres
13.680394,35081605743,-0.031479,-0.050905,-9.834402,0.001024,-0.000796,0.003038,0.141205,1.048756,2.724156,781.52,39.40,highres
13.701319,35081623079,-0.064996,-0.074846,-9.842781,0.000108,-0.000491,0.003955,0.145295,1.041188,2.708790,781.52,39.40,highres
13.719909,35081644397,-0.042253,-0.055694,-9.828417,-0.000198,0.000120,0.002733,0.145295,1.041188,2.708790,781.52,39.40,highres
13.741687,35081663398,-0.038661,-0.066467,-9.821234,-0.000808,-0.002629,0.004565,0.145295,1.041188,2.708790,781.52,39.40,highres
13.760326,35081682911,-0.057814,-0.059285,-9.841586,0.000413,-0.001407,0.002122,0.145295,1.041188,2.708790,781.52,39.40,highres
13.780303,35081702339,-0.043450,-0.071255,-9.841585,0.000108,0.000426,0.003955,0.145295,1.041188,2.708790,781.52,39.40,highres
13.800473,35081715579,-0.060208,-0.066467,-9.835599,0.000413,0.001037,0.002427,0.145295,1.041188,2.708790,781.52,39.40,highres
13.819476,35081736394,-0.043450,-0.061679,-9.832006,0.001635,0.000120,0.002733,0.145295,1.041188,2.708790,781.52,39.40,highres
13.840735,35081756340,-0.038661,-0.067664,-9.833205,0.000108,0.001037,0.002733,0.150588,1.050887,2.724164,781.52,39.40,highres
13.859049,35081775726,-0.039858,-0.058088,-9.847570,0.000413,0.001037,0.002122,0.150588,1.050887,2.724164,781.52,39.40,highres
13.880737,35081798703,-0.064996,-0.065270,-9.849963,-0.000808,0.001342,0.002427,0.150588,1.050887,2.724164,781.52,39.40,highres
13.900189,35081816002,-0.047041,-0.059285,-9.834402,-0.000503,0.001037,0.002733,0.150588,1.050887,2.724164,781.52,39.40,highres
13.919702,35081835880,-0.047041,-0.071255,-9.839190,-0.000808,0.000120,0.004260,0.150588,1.050887,2.724164,781.52,39.40,highres
13.941574,35081856436,-0.056617,-0.062876,-9.843979,0.000413,0.001037,0.002733,0.150588,1.050887,2.724164,781.52,39.40,highres
13.959520,35081883266,-0.054223,-0.066467,-9.843979,0.000719,0.002258,0.003649,0.153988,1.055309,2.715356,781.52,39.40,highres
13.979428,35081903383,-0.038661,-0.064073,-9.839190,0.000108,0.000426,0.002427,0.144026,1.045891,2.709991,781.52,39.40,highres
13.999681,35081923422,-0.044647,-0.076043,-9.866721,-0.001114,0.001037,0.002733,0.144026,1.045891,2.709991,781.52,39.40,highres
14.019576,35081946709,-0.048238,-0.071255,-9.827220,-0.000198,0.000731,0.002427,0.144026,1.045891,2.709991,781.52,39.40,highres
14.041189,35081966160,-0.063799,-0.059285,-9.847569,0.000108,0.001953,0.003344,0.144026,1.045891,2.709991,781.52,39.40,highres
14.058868,35081983768,-0.054223,-0.067664,-9.859541,0.000413,0.000731,0.002427,0.144026,1.045891,2.709991,781.52,39.40,highres
14.078865,35082001923,-0.060208,-0.076043,-9.858342,0.001330,-0.000185,0.002427,0.144026,1.045891,2.709991,781.52,39.40,highres
14.100722,35082021547,-0.043450,-0.080832,-9.843981,-0.000503,0.000731,0.003038,0.152931,1.047781,2.716853,781.52,39.40,highres
14.119500,35082038572,-0.047041,-0.071255,-9.854753,0.000108,-0.001101,0.002733,0.147669,1.055671,2.710513,781.53,39.40,highres
14.139750,35082056171,-0.048238,-0.068861,-9.835601,0.000108,0.002258,0.004565,0.147669,1.055671,2.710513,781.53,39.40,highres
14.159140,35082079025,-0.048238,-0.082029,-9.834401,-0.000197,-0.000796,0.001511,0.147669,1.055671,2.710513,781.53,39.40,highres
14.180536,35082096365,-0.053026,-0.067664,-9.833206,-0.001419,0.000426,0.003649,0.147669,1.055671,2.710513,781.53,39.40,highres
14.199665,35082116653,-0.047041,-0.061679,-9.832007,-0.000503,-0.000185,0.001511,0.147669,1.055671,2.710513,781.52,39.40,highres
14.222364,35082138785,-0.056617,-0.070058,-9.833206,-0.001725,0.001342,0.003649,0.147669,1.055671,2.710513,781.52,39.40,highres
14.241361,35082163566,-0.041055,-0.068861,-9.839190,-0.000503,-0.000185,0.003344,0.151482,1.048694,2.722726,781.52,39.40,highres
14.260190,35082183625,-0.049435,-0.072452,-9.837993,0.001024,0.000731,0.004565,0.150274,1.047030,2.711316,781.52,39.40,highres
14.279805,35082204145,-0.033873,-0.065270,-9.845175,0.000719,-0.002018,0.001816,0.150274,1.047030,2.711316,781.52,39.40,highres
14.279805,35082223743,-0.032676,-0.065270,-9.836796,0.000108,-0.000796,0.003649,0.150274,1.047030,2.711316,781.52,39.40,highres
14.320223,35082244078,-0.038661,-0.070058,-9.846373,0.000108,-0.000796,0.003038,0.150274,1.047030,2.711316,781.52,39.40,highres
14.339736,35082264103,-0.048238,-0.074846,-9.840388,-0.000503,0.001342,0.003649,0.150274,1.047030,2.711316,781.52,39.40,highres
14.359617,35082282421,-0.055420,-0.073649,-9.841583,-0.000808,-0.000491,0.004260,0.150274,1.047030,2.711316,781.52,39.40,highres
14.379324,35082304077,-0.045844,-0.074846,-9.834402,-0.001114,-0.001712,0.002733,0.154665,1.053617,2.715437,781.52,39.40,highres
14.399818,35082323683,-0.044647,-0.068861,-9.847569,-0.000503,0.000120,0.003955,0.150230,1.044474,2.724782,781.52,39.40,highres
14.420760,35082344899,-0.051611,-0.072561,-9.837994,-0.000198,0.001037,0.002427,0.150230,1.044474,2.724782,781.52,39.40,highres
14.440576,35082363058,-0.055420,-0.065270,-9.840388,0.000108,0.000731,0.001206,0.150230,1.044474,2.724782,781.52,39.40,highres
14.460137,35082379258,-0.051829,-0.058088,-9.837995,-0.000808,0.000731,0.002427,0.150230,1.044474,2.724782,781.52,39.40,highres
14.479303,35082399289,-0.054223,-0.067664,-9.841584,0.000108,0.000731,0.002427,0.150230,1.044474,2.724782,781.52,39.40,highres
14.499757,35082416583,-0.055420,-0.062876,-9.841584,0.001024,0.001037,0.003038,0.150230,1.044474,2.724782,781.52,39.40,highres
14.519428,35082438975,-0.049435,-0.061679,-9.845175,-0.001114,-0.000491,0.002733,0.151892,1.049846,2.717248,781.51,39.40,highres
14.540060,35082446874,-0.049435,-0.070058,-9.842780,-0.001114,-0.000185,0.003649,0.143250,1.044972,2.716473,781.51,39.40,highres
14.560119,35082478920,-0.051829,-0.072452,-9.839190,0.001635,0.001037,0.003649,0.143250,1.044972,2.716473,781.51,39.40,highres
14.579918,35082499651,-0.051829,-0.073649,-9.849963,-0.000198,-0.000491,0.002427,0.143250,1.044972,2.716473,781.51,39.40,highres
14.599463,35082518547,-0.055420,-0.068861,-9.845175,-0.001419,0.001037,0.003649,0.143250,1.044972,2.716473,781.51,39.40,highres
14.620329,35082541735,-0.044647,-0.078438,-9.836796,-0.001114,-0.000796,0.003344,0.143250,1.044972,2.716473,781.51,39.40,highres
14.641470,35082561793,-0.042253,-0.076043,-9.843978,-0.000197,-0.000185,0.002733,0.143250,1.044972,2.716473,781.51,39.40,highres
14.660464,35082581960,-0.054223,-0.073649,-9.846373,0.000108,0.000731,0.003344,0.143250,1.044972,2.716473,781.51,39.40,highres
14.680291,35082599169,-0.041057,-0.067668,-9.840393,-0.000198,0.000412,0.001766,0.153117,1.048311,2.713137,781.51,39.40,highres
14.698869,35082620395,-0.047042,-0.071259,-9.843984,0.000108,-0.001420,0.002377,0.146057,1.055689,2.701231,781.51,39.40,highres
14.719665,35082643104,-0.049437,-0.074850,-9.854757,0.000413,-0.000809,0.002683,0.146057,1.055689,2.701231,781.51,39.40,highres
14.740489,35082660726,-0.053028,-0.066471,-9.837999,-0.000503,-0.000809,0.002988,0.146057,1.055689,2.701231,781.51,39.40,highres
14.760071,35082680189,-0.047042,-0.059289,-9.842787,0.000413,0.000107,0.002683,0.146057,1.055689,2.701231,781.51,39.40,highres
14.779524,35082701591,-0.053028,-0.068865,-9.848772,0.000719,-0.000809,0.001766,0.146057,1.055689,2.701231,781.51,39.40,highres
14.799861,35082719941,-0.051831,-0.062880,-9.842786,-0.000198,0.000107,0.002988,0.146057,1.055689,2.701231,781.51,39.40,highres
14.819829,35082739625,-0.055422,-0.061683,-9.839195,-0.000198,-0.000199,0.002072,0.149887,1.051768,2.719048,781.51,39.40,highres
14.842077,35082762144,-0.049437,-0.060486,-9.840393,-0.001114,-0.001420,0.002072,0.167788,1.056841,2.708575,781.51,39.40,highres
14.861421,35082782833,-0.051831,-0.074850,-9.842787,-0.002030,-0.002337,0.002377,0.167788,1.056841,2.708575,781.51,39.40,highres
14.879300,35082799521,-0.050634,-0.064077,-9.836802,-0.000503,0.000412,0.002988,0.167788,1.056841,2.708575,781.51,39.40,highres
14.901534,35082822142,-0.054225,-0.073653,-9.828423,0.001329,-0.001115,0.002988,0.167788,1.056841,2.708575,781.51,39.40,highres
14.920106,35082842261,-0.050634,-0.070062,-9.845181,-0.001114,-0.000504,0.003294,0.167788,1.056841,2.708575,781.49,39.40,highres
14.943097,35082862035,-0.049437,-0.076047,-9.841591,0.000108,0.000718,0.002988,0.167788,1.056841,2.708575,781.49,39.40,highres
14.959917,35082882301,-0.057816,-0.061683,-9.853561,-0.000198,0.000107,0.002683,0.152179,1.050976,2.713948,781.49,39.40,highres
14.980166,35082897265,-0.051831,-0.061683,-9.839195,-0.001114,0.000412,0.003599,0.150801,1.054035,2.729030,781.49,39.40,highres
14.999816,35082919368,-0.051831,-0.067668,-9.848772,0.000108,0.001329,0.002683,0.150801,1.054035,2.729030,781.49,39.40,highres
15.020323,35082937198,-0.045845,-0.066471,-9.841592,0.000719,0.000412,0.002683,0.150801,1.054035,2.729030,781.49,39.40,highres
15.041711,35082962927,-0.054225,-0.055697,-9.842786,-0.000198,0.000412,0.003293,0.150801,1.054035,2.729030,781.49,39.40,highres
15.060597,35082977462,-0.053028,-0.066471,-9.843987,-0.000809,-0.001420,0.003904,0.150801,1.054035,2.729030,781.49,39.40,highres
15.080088,35082999519,-0.043451,-0.072456,-9.842787,-0.000503,-0.001115,0.003599,0.150801,1.054035,2.729030,781.49,39.40,highres
15.100622,35083017254,-0.045845,-0.065274,-9.846378,-0.000503,-0.000504,0.002683,0.151445,1.055005,2.712392,781.49,39.40,highres
15.121369,35083038051,-0.048240,-0.073653,-9.853560,0.000108,0.000107,0.003599,0.160348,1.061151,2.713251,781.49,39.40,highres
15.139948,35083057070,-0.056619,-0.071259,-9.839195,0.001024,0.001329,0.002072,0.160348,1.061151,2.713251,781.49,39.40,highres
15.160600,35083082092,-0.063801,-0.071259,-9.842786,0.000413,0.000107,0.003294,0.160348,1.061151,2.713251,781.49,39.40,highres
15.179927,35083102958,-0.057816,-0.074850,-9.848772,0.000413,0.001023,0.003904,0.160348,1.061151,2.713251,781.49,39.40,highres
15.201311,35083124607,-0.049437,-0.074850,-9.846378,-0.000198,-0.000199,0.002377,0.160348,1.061151,2.713251,781.49,39.40,highres
15.220772,35083145537,-0.049437,-0.068865,-9.847576,-0.000809,0.001634,0.003904,0.160348,1.061151,2.713251,781.49,39.40,highres
15.241133,35083164742,-0.054225,-0.073653,-9.839196,0.000719,0.001634,0.003599,0.147970,1.049995,2.714292,781.48,39.40,highres
15.261384,35083182240,-0.045845,-0.072456,-9.836802,-0.000809,-0.000809,0.002988,0.133977,1.059725,2.706722,781.48,39.40,highres
15.279245,35083204598,-0.041057,-0.053303,-9.840393,-0.000198,0.001023,0.003294,0.133977,1.059725,2.706722,781.48,39.40,highres
15.283132,35083222294,-0.051831,-0.071259,-9.837999,0.000108,0.000412,0.002988,0.133977,1.059725,2.706722,781.48,39.40,highres
15.283132,35083240247,-0.033875,-0.054500,-9.858349,-0.000198,0.001023,0.004210,0.133977,1.059725,2.706722,781.48,39.40,highres
15.341558,35083262956,-0.041057,-0.060486,-9.840393,0.000413,-0.000199,0.002683,0.133977,1.059725,2.706722,781.48,39.40,highres
15.359875,35083284803,-0.041057,-0.059289,-9.834407,0.000719,0.000107,0.001461,0.133977,1.059725,2.706722,781.48,39.40,highres
15.380529,35083304681,-0.043451,-0.066471,-9.837999,-0.001114,-0.000199,0.002683,0.147406,1.053804,2.715273,781.48,39.40,highres
15.399765,35083325057,-0.051831,-0.062880,-9.848772,-0.001114,0.000107,0.002377,0.136848,1.053268,2.726697,781.49,39.40,highres
15.420325,35083342779,-0.057816,-0.058092,-9.852365,-0.001114,0.001329,0.003904,0.136848,1.053268,2.726697,781.49,39.40,highres
15.441742,35083362387,-0.047042,-0.061683,-9.833211,0.000108,0.000718,0.003294,0.136848,1.053268,2.726697,781.49,39.40,highres
15.459441,35083380582,-0.053028,-0.071259,-9.839194,-0.001419,0.000107,0.002683,0.136848,1.053268,2.726697,781.49,39.40,highres
15.479104,35083402549,-0.048240,-0.072456,-9.836802,-0.000198,0.001634,0.003904,0.136848,1.053268,2.726697,781.50,39.40,highres
15.500187,35083417866,-0.051831,-0.064077,-9.851167,-0.000198,0.000107,0.002988,0.136848,1.053268,2.726697,781.50,39.40,highres
15.520797,35083442986,-0.054225,-0.058092,-9.836802,0.001024,0.000412,0.001461,0.145817,1.048944,2.720155,781.50,39.40,highres
15.542065,35083463520,-0.045845,-0.061683,-9.846378,0.000413,-0.000504,0.002988,0.149583,1.035040,2.709388,781.50,39.40,highres
15.559474,35083482622,-0.042254,-0.059289,-9.848771,0.001635,-0.000504,0.002683,0.149583,1.035040,2.709388,781.50,39.40,highres
15.578946,35083502895,-0.051828,-0.068874,-9.837981,0.001029,-0.001122,0.002639,0.149583,1.035040,2.709388,781.50,39.40,highres
15.599457,35083517937,-0.067390,-0.070071,-9.823615,-0.000804,-0.000511,0.002944,0.149583,1.035040,2.709388,781.50,39.40,highres
15.620678,35083540851,-0.096119,-0.064086,-9.865511,-0.002942,0.002848,0.003555,0.149583,1.035040,2.709388,781.50,39.40,highres
15.640307,35083558129,-0.050631,-0.062889,-9.869103,0.000112,0.000099,0.003860,0.149583,1.035040,2.709388,781.50,39.40,highres
15.660135,35083581105,-0.049434,-0.067677,-9.834391,-0.001415,0.001932,0.003860,0.148988,1.053107,2.715701,781.50,39.40,highres
15.679362,35083601763,-0.050631,-0.068874,-9.824812,-0.001720,0.002543,0.002028,0.150726,1.054162,2.717885,781.50,39.40,highres
15.701407,35083622595,-0.045843,-0.061692,-9.837980,-0.001720,0.000710,0.004166,0.150726,1.054162,2.717885,781.50,39.40,highres
15.720375,35083640935,-0.047040,-0.065283,-9.830797,-0.001109,0.000710,0.003860,0.150726,1.054162,2.717885,781.51,39.40,highres
15.739365,35083662144,-0.055420,-0.058101,-9.837979,0.000723,0.000710,0.003860,0.150726,1.054162,2.717885,781.51,39.40,highres
15.753849,35083678282,-0.045843,-0.066480,-9.837980,0.000112,-0.000817,0.002944,0.150726,1.054162,2.717885,781.51,39.40,highres
15.780738,35083701362,-0.044646,-0.066480,-9.840375,0.001029,-0.000817,0.003555,0.150726,1.054162,2.717885,781.51,39.40,highres
15.799962,35083721212,-0.048237,-0.059298,-9.830797,0.000112,-0.000206,0.002333,0.153287,1.055418,2.717478,781.51,39.40,highres
15.819581,35083740997,-0.043449,-0.067677,-9.837980,0.000112,0.000710,0.002028,0.139587,1.050538,2.700591,781.51,39.40,highres
15.843930,35083760788,-0.050631,-0.070071,-9.847556,-0.000498,0.000405,0.002028,0.139587,1.050538,2.700591,781.51,39.40,highres
15.860096,35083778242,-0.055420,-0.066480,-9.841571,-0.001109,0.000099,0.002944,0.139587,1.050538,2.700591,781.51,39.40,highres
15.880103,35083795346,-0.037464,-0.065283,-9.835586,-0.000498,0.000099,0.002333,0.139587,1.050538,2.700591,781.51,39.40,highres
15.899767,35083815358,-0.041055,-0.071268,-9.836784,-0.001415,-0.000817,0.002944,0.139587,1.050538,2.700591,781.51,39.40,highres
15.920869,35083838520,-0.047040,-0.072465,-9.837979,-0.000804,-0.000206,0.003249,0.139587,1.050538,2.700591,781.51,39.40,highres
15.942486,35083858943,-0.057814,-0.058101,-9.835586,-0.000804,-0.000206,0.002333,0.152913,1.051119,2.715787,781.51,39.40,highres
15.959858,35083878357,-0.050631,-0.070071,-9.829600,-0.000193,-0.000511,0.002944,0.158775,1.059350,2.723030,781.50,39.40,highres
15.979667,35083896103,-0.060208,-0.061692,-9.841571,0.000112,0.000405,0.003249,0.158775,1.059350,2.723030,781.50,39.40,highres
15.999729,35083918921,-0.037464,-0.078451,-9.852345,0.000112,0.000099,0.002028,0.158775,1.059350,2.723030,781.50,39.40,highres
16.019983,35083938423,-0.053025,-0.066480,-9.841570,0.000418,0.001016,0.003860,0.158775,1.059350,2.723030,781.50,39.40,highres
16.042309,35083955783,-0.049434,-0.074859,-9.827207,-0.000498,-0.000511,0.003249,0.158775,1.059350,2.723030,781.51,39.40,highres
16.059286,35083983837,-0.053025,-0.070071,-9.835586,-0.000804,-0.000206,0.002333,0.158775,1.059350,2.723030,781.51,39.40,highres
16.079403,35084003160,-0.051828,-0.078451,-9.845162,-0.000804,0.000405,0.002333,0.150896,1.053751,2.711951,781.51,39.40,highres
16.099057,35084025216,-0.041055,-0.066480,-9.847556,-0.000193,-0.000511,0.002944,0.142067,1.039477,2.702920,781.51,39.40,highres
16.120894,35084042773,-0.047040,-0.059298,-9.835585,0.000723,0.000405,0.002639,0.142067,1.039477,2.702920,781.50,39.40,highres
16.142504,35084065212,-0.039858,-0.064086,-9.847556,-0.000193,-0.001122,0.004166,0.142067,1.039477,2.702920,781.50,39.40,highres
16.159358,35084085644,-0.057814,-0.074859,-9.830797,0.000723,0.000710,0.001417,0.142067,1.039477,2.702920,781.50,39.40,highres
16.180179,35084098919,-0.051828,-0.076056,-9.826009,0.000112,-0.000511,0.002638,0.142067,1.039477,2.702920,781.50,39.40,highres
16.200211,35084121778,-0.047040,-0.066480,-9.848754,0.000112,-0.000511,0.002638,0.142067,1.039477,2.702920,781.50,39.40,highres
16.221566,35084143186,-0.039858,-0.065283,-9.839177,-0.000498,-0.000511,0.002028,0.146210,1.049675,2.715594,781.50,39.40,highres
16.241188,35084162206,-0.051828,-0.076056,-9.845163,-0.000193,0.001016,0.002944,0.165562,1.057423,2.716169,781.50,39.40,highres
16.259989,35084180609,-0.051416,-0.064815,-9.845311,-0.000193,0.001016,0.002944,0.165562,1.057423,2.716169,781.50,39.40,highres
16.280616,35084198743,-0.053025,-0.067677,-9.841571,0.000723,0.000710,0.002333,0.165562,1.057423,2.716169,781.50,39.40,highres
16.283813,35084220748,-0.044646,-0.070071,-9.834389,0.000112,-0.000817,0.002944,0.165562,1.057423,2.716169,781.50,39.40,highres
16.283813,35084242198,-0.047040,-0.068874,-9.837980,0.000723,0.000710,0.002028,0.165562,1.057423,2.716169,781.50,39.40,highres
16.343390,35084261962,-0.045843,-0.074859,-9.836783,0.000418,0.001016,0.004166,0.165562,1.057423,2.716169,781.50,39.40,highres
16.360097,35084279021,-0.043449,-0.082042,-9.837981,0.000112,0.000099,0.003860,0.152630,1.054326,2.713168,781.50,39.40,highres
16.380514,35084298955,-0.043449,-0.072465,-9.835587,-0.000804,-0.001733,0.002333,0.151262,1.050223,2.716046,781.50,39.40,highres
16.400576,35084322574,-0.047040,-0.064086,-9.834389,0.001029,0.000405,0.002944,0.151262,1.050223,2.716046,781.50,39.40,highres
16.422348,35084342012,-0.048237,-0.049721,-9.843965,-0.000498,0.000099,0.002028,0.151262,1.050223,2.716046,781.50,39.40,highres
16.440934,35084358968,-0.053025,-0.070071,-9.840376,0.000418,-0.001122,0.002944,0.151262,1.050223,2.716046,781.50,39.40,highres
16.460228,35084382156,-0.047040,-0.074859,-9.839177,0.000723,0.000405,0.003249,0.151262,1.050223,2.716046,781.50,39.40,highres
16.479476,35084401897,-0.062602,-0.068874,-9.840375,0.000418,0.001016,0.002944,0.151262,1.050223,2.716046,781.50,39.40,highres
16.500552,35084421528,-0.053025,-0.058101,-9.841571,0.000112,0.001321,0.002028,0.151667,1.045402,2.720708,781.50,39.40,highres
16.522113,35084441943,-0.038661,-0.067677,-9.839177,-0.000804,0.000405,0.002944,0.156666,1.048806,2.726991,781.50,39.40,highres
16.540907,35084461477,-0.059011,-0.065283,-9.842769,0.000112,0.000710,0.002333,0.156666,1.048806,2.726991,781.50,39.40,highres
16.560139,35084478957,-0.049434,-0.060495,-9.840376,-0.000804,-0.000511,0.003860,0.156666,1.048806,2.726991,781.50,39.40,highres
16.579334,35084498957,-0.045840,-0.067677,-9.837275,-0.000201,0.001022,0.002895,0.156666,1.048806,2.726991,781.50,39.40,highres
16.600090,35084522299,-0.050628,-0.068874,-9.850442,0.000715,0.000716,0.002284,0.156666,1.048806,2.726991,781.50,39.40,highres
16.619821,35084539110,-0.044643,-0.062889,-9.838471,0.000410,0.000411,0.003506,0.156666,1.048806,2.726991,781.50,39.40,highres
16.641512,35084559173,-0.056614,-0.070071,-9.842063,0.000105,0.001022,0.002284,0.152071,1.059541,2.719578,781.50,39.40,highres
16.659476,35084581394,-0.044643,-0.073662,-9.843260,0.001021,0.001327,0.002895,0.152432,1.043055,2.720349,781.50,39.40,highres
16.681550,35084598733,-0.048234,-0.064086,-9.838471,0.000715,0.000105,0.002284,0.152432,1.043055,2.720349,781.50,39.40,highres
16.700085,35084616337,-0.038658,-0.073662,-9.849244,0.000105,0.000716,0.002895,0.152432,1.043055,2.720349,781.50,39.40,highres
16.720078,35084641825,-0.051825,-0.068874,-9.838471,-0.000506,0.000716,0.002895,0.152432,1.043055,2.720349,781.50,39.40,highres
16.742411,35084658580,-0.057811,-0.061692,-9.836077,0.001021,0.001327,0.001978,0.152432,1.043055,2.720349,781.50,39.40,highres
16.760034,35084681674,-0.048234,-0.076056,-9.838471,-0.000201,-0.000200,0.003811,0.152432,1.043055,2.720349,781.50,39.40,highres
16.780261,35084702612,-0.044643,-0.072465,-9.832484,-0.000201,0.001327,0.002589,0.150531,1.054919,2.720474,781.50,39.40,highres
16.800145,35084719479,-0.054220,-0.060495,-9.854035,-0.002033,0.002243,0.002284,0.145397,1.055453,2.718084,781.50,39.40,highres
16.820516,35084739086,-0.063796,-0.078450,-9.848048,-0.000812,0.001632,0.001978,0.145397,1.055453,2.718084,781.50,39.40,highres
16.841099,35084762274,-0.063796,-0.066480,-9.846851,-0.000812,0.002243,0.002589,0.145397,1.055453,2.718084,781.49,39.40,highres
16.860276,35084781511,-0.044643,-0.068874,-9.832486,-0.000506,-0.001422,0.003200,0.145397,1.055453,2.718084,781.49,39.40,highres
16.880558,35084793868,-0.057811,-0.061692,-9.846850,0.001632,0.001022,0.002895,0.145397,1.055453,2.718084,781.49,39.40,highres
16.899873,35084822074,-0.053023,-0.068874,-9.845654,-0.000812,-0.001116,0.002589,0.145397,1.055453,2.718084,781.49,39.40,highres
16.921166,35084839279,-0.053023,-0.074859,-9.856427,0.000410,-0.001116,0.002284,0.149483,1.050218,2.719152,781.50,39.40,highres
16.943988,35084865220,-0.049431,-0.070071,-9.844457,-0.001117,0.000411,0.003200,0.157164,1.059367,2.713749,781.50,39.40,highres
16.959773,35084881554,-0.050628,-0.068874,-9.854033,-0.000506,0.000411,0.004116,0.157164,1.059367,2.713749,781.50,39.40,highres
16.979830,35084901987,-0.060205,-0.062889,-9.832487,-0.001423,0.000716,0.003506,0.157164,1.059367,2.713749,781.50,39.40,highres
16.999556,35084919233,-0.050628,-0.064086,-9.848049,-0.000506,-0.000811,0.002284,0.157164,1.059367,2.713749,781.51,39.40,highres
17.019600,35084941739,-0.059008,-0.068874,-9.842064,0.000410,-0.000200,0.003200,0.157164,1.059367,2.713749,781.51,39.40,highres
17.042046,35084962233,-0.051825,-0.067677,-9.838472,0.001021,0.000411,0.003200,0.157164,1.059367,2.713749,781.51,39.40,highres
17.059789,35084981872,-0.053023,-0.073662,-9.848048,0.001632,0.000105,0.003811,0.151781,1.052216,2.718820,781.51,39.40,highres
17.081294,35085001983,-0.043446,-0.066480,-9.832486,0.000410,-0.000506,0.001673,0.152521,1.058220,2.720910,781.50,39.40,highres
17.099706,35085019612,-0.047037,-0.070071,-9.856427,0.000105,-0.000506,0.003811,0.152521,1.058220,2.720910,781.50,39.40,highres
17.121758,35085039199,-0.037461,-0.072465,-9.850442,0.000410,-0.000200,0.002589,0.152521,1.058220,2.720910,781.50,39.40,highres
17.141309,35085059690,-0.041052,-0.073662,-9.836078,-0.000506,-0.000506,0.002284,0.152521,1.058220,2.720910,781.50,39.40,highres
17.161064,35085082201,-0.050628,-0.065283,-9.849243,-0.000201,0.001022,0.002284,0.152521,1.058220,2.720910,781.50,39.40,highres
17.179896,35085097715,-0.049431,-0.071268,-9.838471,0.000410,0.000105,0.002895,0.152521,1.058220,2.720910,781.50,39.40,highres
17.200335,35085119390,-0.056614,-0.068874,-9.836078,-0.000506,-0.001116,0.004116,0.155420,1.052963,2.718201,781.50,39.40,highres
17.220419,35085140505,-0.054220,-0.070071,-9.840864,0.000410,-0.001422,0.003811,0.147661,1.054807,2.716063,781.50,39.40,highres
17.242718,35085154636,-0.049431,-0.074859,-9.837273,-0.001728,-0.000200,0.003200,0.147661,1.054807,2.716063,781.50,39.40,highres
17.260103,35085184101,-0.039855,-0.074859,-9.842061,0.000715,-0.001116,0.003200,0.147661,1.054807,2.716063,781.50,39.40,highres
17.279762,35085207850,-0.053023,-0.066480,-9.849244,0.000105,0.000716,0.002589,0.147661,1.054807,2.716063,781.50,39.40,highres
17.286369,35085224494,-0.045840,-0.067677,-9.843260,0.000410,-0.000506,0.003506,0.147661,1.054807,2.716063,781.50,39.40,highres
17.286369,35085241746,-0.050628,-0.071268,-9.824108,0.000410,0.001022,0.002284,0.147661,1.054807,2.716063,781.50,39.40,highres
17.341108,35085264631,-0.048234,-0.052115,-9.843260,-0.000506,0.001632,0.001368,0.150098,1.054388,2.718271,781.50,39.40,highres
17.360477,35085280138,-0.051825,-0.068874,-9.848048,-0.000506,-0.000811,0.002284,0.147962,1.057810,2.733665,781.50,39.40,highres
17.381380,35085302379,-0.044643,-0.071268,-9.844457,0.000410,0.000411,0.003506,0.147962,1.057810,2.733665,781.50,39.40,highres
17.400443,35085321917,-0.056614,-0.068874,-9.834881,-0.000201,0.000411,0.003811,0.147962,1.057810,2.733665,781.50,39.40,highres
17.422526,35085342440,-0.048234,-0.083238,-9.821713,-0.000201,-0.000506,0.003506,0.147962,1.057810,2.733665,781.50,39.40,highres
17.441187,35085362381,-0.064993,-0.068874,-9.834880,0.001326,0.001022,0.002284,0.147962,1.057810,2.733665,781.50,39.40,highres
17.459479,35085382272,-0.055417,-0.072465,-9.844457,0.000410,0.001022,0.002284,0.147962,1.057810,2.733665,781.50,39.40,highres
17.480528,35085397285,-0.045840,-0.072465,-9.844457,0.000715,0.000105,0.003200,0.148737,1.051005,2.716524,781.50,39.40,highres
17.499672,35085420976,-0.053023,-0.065283,-9.820516,0.000715,-0.000200,0.003200,0.152443,1.057474,2.716111,781.50,39.40,highres
17.520469,35085437361,-0.047037,-0.066480,-9.840865,0.001937,-0.000200,0.004116,0.152443,1.057474,2.716111,781.50,39.40,highres
17.541160,35085457292,-0.050628,-0.076056,-9.844456,-0.000506,-0.001727,0.002589,0.152443,1.057474,2.716111,781.50,39.40,highres
17.560783,35085484436,-0.054220,-0.068874,-9.836079,-0.000201,0.000105,0.004116,0.152443,1.057474,2.716111,781.50,39.40,highres
17.580537,35085504603,-0.043446,-0.070071,-9.836079,-0.000506,0.000716,0.003811,0.152443,1.057474,2.716111,781.50,39.40,highres
17.600912,35085524584,-0.045847,-0.077258,-9.842773,0.000100,0.001023,0.003761,0.152443,1.057474,2.716111,781.50,39.40,highres
17.621383,35085542211,-0.042255,-0.073667,-9.848760,0.001016,0.000718,0.003761,0.154329,1.054386,2.716323,781.50,39.40,highres
17.641238,35085564371,-0.050635,-0.071273,-9.836789,-0.000206,0.000107,0.002540,0.152323,1.055045,2.718432,781.50,39.40,highres
17.659306,35085581977,-0.042255,-0.061697,-9.839184,-0.000206,-0.000504,0.002845,0.152323,1.055045,2.718432,781.50,39.40,highres
17.680353,35085601948,-0.050635,-0.058105,-9.837986,-0.000511,0.000718,0.003150,0.152323,1.055045,2.718432,781.50,39.40,highres
17.700625,35085624396,-0.044649,-0.068879,-9.818834,-0.000206,-0.000504,0.004067,0.152323,1.055045,2.718432,781.50,39.40,highres
17.721254,35085642356,-0.051832,-0.065288,-9.842772,0.000405,0.000412,0.002845,0.152323,1.055045,2.718432,781.50,39.40,highres
17.741565,35085662293,-0.055423,-0.072470,-9.833198,-0.000817,0.001329,0.002540,0.152323,1.055045,2.718432,781.50,39.40,highres
17.760080,35085682892,-0.054226,-0.064091,-9.837986,0.000405,0.000718,0.003150,0.149080,1.054013,2.722558,781.50,39.40,highres
17.779997,35085702073,-0.029088,-0.067682,-9.835592,-0.000206,0.000107,0.002845,0.146784,1.066742,2.715077,781.50,39.40,highres
17.800271,35085722221,-0.038664,-0.074864,-9.846365,-0.000817,0.001023,0.001929,0.146784,1.066742,2.715077,781.51,39.40,highres
17.821243,35085737419,-0.054226,-0.080849,-9.853546,0.001016,0.001023,0.003150,0.146784,1.066742,2.715077,781.51,39.40,highres
17.844546,35085762716,-0.039861,-0.067682,-9.839182,0.000100,0.000718,0.002540,0.146784,1.066742,2.715077,781.51,39.40,highres
17.859685,35085781023,-0.054226,-0.070076,-9.835591,-0.000511,-0.001726,0.003456,0.146784,1.066742,2.715077,781.51,39.40,highres
17.879465,35085803421,-0.049438,-0.064091,-9.858335,-0.001122,-0.000199,0.001929,0.146784,1.066742,2.715077,781.52,39.40,highres
17.900551,35085822362,-0.048241,-0.076061,-9.846365,-0.000817,-0.000504,0.003456,0.142535,1.057152,2.718126,781.52,39.40,highres
17.920668,35085838431,-0.035073,-0.074864,-9.828409,0.000100,0.001329,0.003456,0.146627,1.064377,2.711826,781.52,39.40,highres
17.942044,35085861247,-0.055423,-0.073667,-9.821227,-0.000511,-0.000504,0.001623,0.146627,1.064377,2.711826,781.52,39.40,highres
17.960748,35085882872,-0.044649,-0.073667,-9.845168,-0.001122,0.000412,0.001929,0.146627,1.064377,2.711826,781.52,39.40,highres
17.980297,35085902977,-0.045847,-0.071273,-9.843971,-0.001122,-0.000199,0.003456,0.146627,1.064377,2.711826,781.52,39.40,highres
18.000530,35085920232,-0.047044,-0.070076,-9.833199,-0.001428,-0.000504,0.002234,0.146627,1.064377,2.711826,781.52,39.40,highres
18.021837,35085941440,-0.049438,-0.064091,-9.847563,0.000100,-0.000199,0.002540,0.146627,1.064377,2.711826,781.52,39.40,highres
18.041694,35085962658,-0.042255,-0.083243,-9.849957,0.001932,-0.000199,0.002540,0.150128,1.059297,2.719516,781.51,39.40,highres
18.060163,35085980872,-0.060211,-0.064091,-9.839182,0.002848,0.001023,0.002234,0.150555,1.050942,2.719388,781.51,39.40,highres
18.079205,35086000389,-0.063802,-0.082046,-9.854745,-0.000511,-0.000199,0.001929,0.150555,1.050942,2.719388,781.51,39.40,highres
18.101094,35086023094,-0.056620,-0.071273,-9.873898,0.002543,-0.001115,0.002845,0.150555,1.050942,2.719388,781.51,39.40,highres
18.121139,35086040584,-0.068590,-0.082046,-9.846365,0.001627,-0.001420,0.002234,0.150555,1.050942,2.719388,781.51,39.40,highres
18.142089,35086060841,-0.049438,-0.067682,-9.842772,0.001627,-0.000809,0.002540,0.150555,1.050942,2.719388,781.51,39.40,highres
18.160215,35086075453,-0.053029,-0.064091,-9.834394,0.000100,0.003772,0.001929,0.150555,1.050942,2.719388,781.51,39.40,highres
18.181606,35086097964,-0.027891,-0.079652,-9.829607,-0.001733,0.000718,0.001318,0.154800,1.053467,2.717534,781.51,39.40,highres
18.200044,35086115233,-0.066196,-0.062894,-9.833199,0.000710,-0.002337,0.002845,0.147262,1.046711,2.723800,781.51,39.40,highres
18.219542,35086135913,-0.043452,-0.058105,-9.830804,-0.002955,0.000718,0.001623,0.147262,1.046711,2.723800,781.51,39.40,highres
18.242120,35086158275,-0.059014,-0.068879,-9.828409,-0.000206,0.000718,0.003761,0.147262,1.046711,2.723800,781.51,39.40,highres
18.261501,35086178455,-0.041058,-0.073667,-9.847562,0.001932,0.001023,0.002540,0.147262,1.046711,2.723800,781.51,39.40,highres
18.281031,35086195349,-0.057817,-0.071273,-9.843970,-0.000817,0.000412,0.002234,0.147262,1.046711,2.723800,781.52,39.40,highres
18.291868,35086218510,-0.061408,-0.079652,-9.861928,0.001627,-0.000504,0.003456,0.147262,1.046711,2.723800,781.52,39.40,highres
18.291868,35086245467,-0.054226,-0.074864,-9.836788,-0.001122,-0.001420,0.002234,0.152678,1.056798,2.718170,781.52,39.40,highres
18.340685,35086267079,-0.061408,-0.064091,-9.842773,-0.000817,-0.001726,0.002234,0.151615,1.054890,2.728121,781.52,39.40,highres
18.361183,35086283316,-0.045847,-0.066485,-9.842775,0.000100,-0.001726,0.002540,0.151615,1.054890,2.728121,781.52,39.40,highres
18.379982,35086305466,-0.048241,-0.066485,-9.842775,0.000100,0.001634,0.001623,0.151615,1.054890,2.728121,781.52,39.40,highres
18.399398,35086323240,-0.039861,-0.062894,-9.837985,0.000100,-0.001420,0.001318,0.151615,1.054890,2.728121,781.52,39.40,highres
18.420048,35086342946,-0.074576,-0.056908,-9.787711,-0.001122,0.000412,0.002234,0.151615,1.054890,2.728121,781.52,39.40,highres
18.441753,35086363048,-0.043452,-0.062894,-9.811650,0.001016,0.000718,0.003150,0.151615,1.054890,2.728121,781.51,39.40,highres
18.460520,35086381280,-0.060211,-0.055711,-9.830805,-0.000206,-0.000809,0.002540,0.145698,1.056273,2.717663,781.51,39.40,highres
18.482280,35086401454,-0.059014,-0.068879,-9.837985,-0.001122,-0.001420,0.001929,0.139840,1.051867,2.724517,781.51,39.40,highres
18.500809,35086418505,-0.060211,-0.076061,-9.843971,0.001321,-0.001115,0.003150,0.139840,1.051867,2.724517,781.51,39.40,highres
18.521179,35086442900,-0.059014,-0.076061,-9.859533,0.001932,0.000107,0.003456,0.139840,1.051867,2.724517,781.51,39.40,highres
18.540400,35086461915,-0.041058,-0.071273,-9.855941,0.001932,0.001023,0.002234,0.139840,1.051867,2.724517,781.51,39.40,highres
18.561734,35086483338,-0.057817,-0.062894,-9.855942,0.000405,0.000107,0.003150,0.139840,1.051867,2.724517,781.51,39.40,highres
18.580216,35086502359,-0.057817,-0.066485,-9.848759,-0.000511,0.000107,0.001012,0.139840,1.051867,2.724517,781.51,39.40,highres
18.599370,35086521075,-0.051840,-0.085642,-9.848614,0.001930,0.001022,0.002497,0.148350,1.057323,2.720421,781.51,39.40,highres
18.620335,35086542029,-0.072189,-0.071277,-9.854600,0.001014,-0.000200,0.001886,0.156794,1.040290,2.705117,781.51,39.40,highres
18.642081,35086563369,-0.057825,-0.061701,-9.819885,0.001319,0.000106,0.004024,0.156794,1.040290,2.705117,781.51,39.40,highres
18.659640,35086583461,-0.100919,-0.085642,-9.822280,0.004374,0.000106,0.003107,0.156794,1.040290,2.705117,781.51,39.40,highres
18.681176,35086603009,0.000831,-0.129933,-9.876146,0.004068,-0.003254,0.002191,0.156794,1.040290,2.705117,781.52,39.40,highres
