t_wall_s,t_boot_us,ax,ay,az,gx,gy,gz,mx,my,mz,abs_pressure,temperature,source
2.253712,66313277175,3.531122,-0.174588,-9.171289,0.001119,0.021083,0.011060,0.215900,0.915032,2.782344,782.06,41.70,highres
2.253712,66313294182,3.559886,-0.061099,-9.097381,-0.011999,0.007904,0.034614,0.215900,0.915032,2.782344,782.06,41.70,highres
2.253712,66313311549,3.579881,-0.183996,-9.083286,-0.010456,0.014572,0.041033,0.215900,0.915032,2.782344,782.06,41.70,highres
2.253712,66313331671,3.656116,-0.193040,-8.887291,-0.000440,0.014247,0.032094,0.212547,0.898855,2.773738,782.06,41.70,highres
2.253712,66313352775,3.653701,-0.202167,-8.929513,0.028454,-0.003809,0.011863,0.225025,0.914088,2.771118,782.06,41.70,highres
2.253712,66313374914,3.599399,-0.180716,-9.147036,0.025841,-0.024573,-0.001206,0.225025,0.914088,2.771118,782.05,41.70,highres
2.253712,66313394410,3.518292,-0.171617,-9.187307,-0.042988,-0.022318,0.007966,0.225025,0.914088,2.771118,782.05,41.70,highres
2.253712,66313414406,3.531221,-0.034676,-9.024272,-0.009940,-0.013365,0.019369,0.225025,0.914088,2.771118,782.05,41.70,highres
2.253942,66313434080,3.543435,-0.131209,-9.066362,0.039597,-0.004894,0.027539,0.225025,0.914088,2.771118,782.05,41.70,highres
2.253942,66313449580,3.602021,-0.170157,-9.123371,0.048845,0.008661,0.027180,0.225025,0.914088,2.771118,782.05,41.70,highres
2.253942,66313476807,3.620986,-0.242545,-9.045545,0.032741,0.012517,-0.002201,0.208190,0.899329,2.775022,782.05,41.70,highres
2.253942,66313492005,3.592772,-0.157226,-9.024773,-0.016068,-0.031064,0.006934,0.204329,0.903366,2.768010,782.05,41.70,highres
2.253942,66313512979,3.553518,-0.157561,-9.072547,-0.033251,-0.049266,0.017008,0.204329,0.903366,2.768010,782.05,41.70,highres
2.253942,66313535036,3.541699,-0.150494,-8.987848,0.018899,-0.013639,0.016805,0.204329,0.903366,2.768010,782.06,41.70,highres
2.253942,66313554571,3.502217,-0.126574,-8.917675,0.070872,0.015434,0.011815,0.204329,0.903366,2.768010,782.06,41.70,highres
2.253942,66313575109,3.494682,-0.178322,-9.031733,0.068553,-0.013789,0.003333,0.204329,0.903366,2.768010,782.06,41.70,highres
2.254011,66313589859,3.504886,-0.118469,-9.112854,0.003493,-0.051211,0.014869,0.204329,0.903366,2.768010,782.06,41.70,highres
2.254011,66313614818,3.440246,-0.082558,-9.264878,0.007853,-0.057428,0.023341,0.213989,0.900462,2.779799,782.06,41.70,highres
2.254011,66313629311,3.399701,-0.084797,-9.339133,0.010173,-0.017254,0.041849,0.204510,0.906569,2.768100,782.06,41.70,highres
2.254011,66313649534,3.447847,-0.149679,-9.089744,0.047476,0.049887,0.063128,0.204510,0.906569,2.768100,782.06,41.70,highres
2.254011,66313667277,3.589511,-0.254740,-9.062970,0.104637,0.072527,0.065902,0.204510,0.906569,2.768100,782.06,41.70,highres
2.254011,66313689488,3.587005,-0.395297,-9.287690,0.067372,0.032178,0.047454,0.204510,0.906569,2.768100,782.06,41.70,highres
2.254011,66313713049,3.634167,-0.299224,-9.200238,-0.078340,-0.006434,0.049732,0.204510,0.906569,2.768100,782.06,41.70,highres
2.254011,66313732485,3.674867,-0.295633,-9.118838,-0.028798,0.023376,0.048164,0.204510,0.906569,2.768100,782.06,41.70,highres
2.254011,66313752302,3.705991,-0.448855,-8.932099,0.040524,0.070328,0.037375,0.212770,0.904011,2.764571,782.06,41.70,highres
2.254086,66313762840,3.666616,-0.461259,-8.841035,0.059709,0.066069,0.020675,0.239227,0.894332,2.755085,782.06,41.70,highres
2.254086,66313794903,3.706532,-0.478639,-9.011162,0.047112,-0.015764,0.008960,0.239227,0.894332,2.755085,782.06,41.70,highres
2.254086,66313809697,3.684444,-0.496737,-9.079337,0.015554,-0.036353,-0.007496,0.239227,0.894332,2.755085,782.06,41.70,highres
2.254086,66313827490,3.679656,-0.369850,-9.042228,-0.009102,-0.042271,-0.019591,0.239227,0.894332,2.755085,782.06,41.70,highres
2.254086,66313849516,3.660503,-0.351573,-8.985238,0.040277,-0.034466,-0.028099,0.239227,0.894332,2.755085,782.05,41.70,highres
2.254086,66313872443,3.680660,-0.406193,-9.191097,0.065769,-0.027088,-0.065713,0.239227,0.894332,2.755085,782.05,41.70,highres
2.254086,66313892570,3.444579,-0.251661,-9.318865,-0.022366,-0.030097,-0.081065,0.239227,0.894332,2.755085,782.05,41.70,highres
2.254086,66313907547,3.404854,-0.072553,-9.105063,-0.054193,-0.030078,-0.040953,0.222612,0.901424,2.750334,782.05,41.70,highres
2.254086,66313935456,3.559978,-0.347876,-9.283047,0.066944,0.018168,-0.020523,0.222612,0.901424,2.750334,782.05,41.70,highres
2.254153,66313949904,3.524774,-0.371851,-9.296782,0.032831,0.069734,-0.035830,0.222612,0.901424,2.750334,782.05,41.70,highres
2.254153,66313970325,3.492315,-0.211240,-8.777103,0.023973,0.076453,-0.023002,0.222612,0.901424,2.750334,782.05,41.70,highres
2.254153,66313987947,3.513265,-0.313588,-8.666354,0.068887,0.034137,-0.009467,0.222612,0.901424,2.750334,782.05,41.70,highres
2.254153,66314007472,3.491719,-0.514693,-9.141583,0.074061,-0.052224,-0.037882,0.222612,0.901424,2.750334,782.05,41.70,highres
2.254153,66314028022,3.546187,-0.237171,-9.199502,-0.067800,-0.079485,-0.033010,0.214757,0.901161,2.765950,782.05,41.70,highres
2.254153,66314047517,3.530024,-0.211839,-9.239741,-0.023724,-0.046893,-0.001752,0.214953,0.900840,2.762836,782.05,41.70,highres
2.254153,66314069698,3.491286,-0.282139,-9.015978,0.006058,0.009815,0.013897,0.214953,0.900840,2.762836,782.05,41.70,highres
2.254153,66314095714,3.426250,-0.244825,-8.961467,0.021362,-0.007783,-0.003317,0.214953,0.900840,2.762836,782.05,41.70,highres
2.254224,66314113659,3.337299,-0.093331,-9.044621,-0.026927,-0.046843,0.015871,0.214953,0.900840,2.762836,782.05,41.70,highres
2.254224,66314129844,3.417117,-0.049040,-9.105384,-0.010491,-0.047920,0.056280,0.214953,0.900840,2.762836,782.05,41.70,highres
2.254224,66314153630,3.597291,-0.250183,-9.296813,0.042387,0.025397,0.075434,0.214953,0.900840,2.762836,782.05,41.70,highres
2.254224,66314167403,3.674347,-0.459941,-9.136082,0.052993,0.053279,0.072100,0.212445,0.905888,2.770466,782.05,41.70,highres
2.254224,66314192440,3.528716,-0.703910,-9.336535,0.032610,0.022895,0.015305,0.209103,0.905169,2.773609,782.05,41.70,highres
2.254224,66314212488,3.464948,-0.467682,-9.305946,-0.087424,0.008200,0.023657,0.209103,0.905169,2.773609,782.05,41.70,highres
2.254224,66314233305,3.626985,-0.377032,-9.124823,-0.052657,0.035954,0.049587,0.209103,0.905169,2.773609,782.05,41.70,highres
2.254224,66314253211,3.782566,-0.534976,-9.056950,-0.001347,0.073405,0.022001,0.209103,0.905169,2.773609,782.05,41.70,highres
2.254296,66314273023,3.775687,-0.464195,-8.867055,-0.018230,0.064801,-0.016454,0.209103,0.905169,2.773609,782.05,41.70,highres
2.254296,66314292442,3.675200,-0.302815,-8.486947,-0.009940,-0.007300,-0.029533,0.209103,0.905169,2.773609,782.05,41.70,highres
2.254296,66314309805,3.494084,-0.259415,-8.479065,0.041689,-0.095442,-0.044360,0.204388,0.908810,2.769270,782.05,41.70,highres
2.254296,66314332688,3.362437,-0.221415,-8.836335,0.057876,-0.150483,-0.023002,0.203780,0.892014,2.780434,782.06,41.70,highres
2.254296,66314350477,3.415917,-0.157265,-9.107415,0.059032,-0.120940,0.004858,0.203780,0.892014,2.780434,782.06,41.70,highres
2.254296,66314365946,3.595179,-0.272005,-9.098852,0.113601,-0.051846,0.033084,0.203780,0.892014,2.780434,782.06,41.70,highres
2.254296,66314392735,3.760953,-0.633606,-9.396008,0.185660,-0.025734,-0.054317,0.203780,0.892014,2.780434,782.06,41.70,highres
2.254296,66314416728,3.452570,-0.293664,-9.557595,-0.040810,-0.107827,-0.087276,0.203780,0.892014,2.780434,782.06,41.70,highres
2.254296,66314430745,3.362769,-0.025176,-9.454167,-0.127522,-0.143763,-0.023307,0.203780,0.892014,2.780434,782.06,41.70,highres
2.254358,66314453551,3.248350,-0.082838,-9.370219,-0.058327,-0.047032,0.023965,0.207960,0.886047,2.765112,782.06,41.70,highres
2.254358,66314467876,3.240338,-0.282465,-9.278047,0.012978,0.050491,0.029533,0.207960,0.886047,2.765112,782.06,41.70,highres
2.254358,66314492997,3.254784,-0.387330,-8.997201,0.043922,0.114511,0.018868,0.207960,0.886047,2.765112,782.05,41.70,highres
2.254358,66314512675,3.400743,-0.349500,-8.945267,0.039406,0.057043,0.025054,0.207960,0.886047,2.765112,782.05,41.70,highres
2.254358,66314532937,3.504530,-0.335071,-9.070503,-0.015985,-0.012769,0.051912,0.207960,0.886047,2.765112,782.05,41.70,highres
2.254358,66314547995,3.570446,-0.379148,-9.145541,-0.032912,-0.029070,0.071838,0.207960,0.886047,2.765112,782.05,41.70,highres
2.254358,66314561873,3.657855,-0.519080,-9.058820,-0.014206,-0.001127,0.070155,0.207960,0.886047,2.765112,782.04,41.70,highres
2.254358,66314586635,3.652345,-0.707772,-9.136066,0.067650,0.034915,0.019148,0.215007,0.871876,2.782457,782.04,41.70,highres
2.254425,66314601035,3.493783,-0.532577,-9.139041,0.039477,0.017965,-0.026723,0.215007,0.871876,2.782457,782.04,41.70,highres
2.254425,66314624381,3.419854,-0.241065,-9.053785,-0.051544,-0.036280,-0.018330,0.215007,0.871876,2.782457,782.04,41.70,highres
2.254425,66314636678,3.428547,-0.248730,-9.087172,-0.049903,-0.045850,0.008279,0.215007,0.871876,2.782457,782.04,41.70,highres
2.254425,66314670593,3.511969,-0.480908,-9.136328,0.026841,0.008417,0.013220,0.215007,0.871876,2.782457,782.04,41.70,highres
2.254425,66314693221,3.439682,-0.369780,-9.086541,0.020169,-0.002068,-0.001458,0.215007,0.871876,2.782457,782.04,41.70,highres
2.254425,66314715394,3.438562,-0.384943,-9.232354,-0.011797,-0.028723,0.012342,0.215007,0.871876,2.782457,782.04,41.70,highres
2.254425,66314733743,3.490521,-0.385411,-9.273258,-0.035264,-0.004494,0.017012,0.213994,0.910283,2.769744,782.04,41.70,highres
2.254425,66314747894,3.517445,-0.357564,-9.209712,-0.019448,0.026900,0.012045,0.213994,0.910283,2.769744,782.04,41.70,highres
2.254425,66314771740,3.518054,-0.393791,-9.057792,-0.007775,0.034907,0.009071,0.213994,0.910283,2.769744,782.04,41.70,highres
2.254490,66314793161,3.487914,-0.365824,-8.933189,-0.015829,-0.018985,0.007517,0.213994,0.910283,2.769744,782.04,41.70,highres
2.254490,66314816125,3.426723,-0.393108,-9.008394,0.014902,-0.033331,0.009630,0.213994,0.910283,2.769744,782.04,41.70,highres
2.254490,66314833199,3.374610,-0.415540,-9.096931,0.030684,-0.017869,0.011985,0.213994,0.910283,2.769744,782.04,41.70,highres
2.254490,66314856522,3.412350,-0.453698,-9.298451,0.008458,0.008564,0.013540,0.201033,0.890245,2.770489,782.04,41.70,highres
2.254490,66314875683,3.472890,-0.390311,-9.259331,-0.010546,0.028270,0.014353,0.212633,0.886266,2.769074,782.04,41.70,highres
2.254490,66314895956,3.618117,-0.364148,-9.236856,0.029766,0.053942,0.027022,0.212633,0.886266,2.769074,782.05,41.70,highres
2.254490,66314913709,3.605466,-0.518838,-9.096149,0.029039,0.060413,0.017016,0.212633,0.886266,2.769074,782.05,41.70,highres
2.254490,66314936571,3.494151,-0.454746,-8.853565,-0.033124,0.005669,0.001740,0.212633,0.886266,2.769074,782.05,41.70,highres
2.254490,66314950485,3.426166,-0.365347,-8.797814,-0.049117,-0.043165,0.014332,0.212633,0.886266,2.769074,782.05,41.70,highres
2.254553,66314973665,3.392052,-0.348606,-8.886697,-0.014452,-0.061462,0.029096,0.212633,0.886266,2.769074,782.05,41.70,highres
2.254553,66314988222,3.493155,-0.427308,-9.152115,0.017270,-0.039619,0.025870,0.203633,0.890214,2.774412,782.05,41.70,highres
2.254553,66315006451,3.508997,-0.379314,-9.126315,0.014309,-0.004429,0.015167,0.201716,0.911144,2.772757,782.05,41.70,highres
2.254553,66315028319,3.520448,-0.383017,-9.047015,0.035126,-0.017533,0.018539,0.201716,0.911144,2.772757,782.05,41.70,highres
2.254553,66315047103,3.451018,-0.475190,-9.178692,0.043372,-0.049822,0.014535,0.201716,0.911144,2.772757,782.04,41.70,highres
2.254553,66315067499,3.343307,-0.447769,-9.347159,-0.018412,-0.060569,0.003636,0.201716,0.911144,2.772757,782.04,41.70,highres
2.254553,66315093779,3.397081,-0.354442,-9.244529,-0.015578,-0.007024,0.041015,0.201716,0.911144,2.772757,782.04,41.70,highres
2.254631,66315114094,3.491073,-0.500109,-9.247787,0.028264,0.040253,0.035335,0.201716,0.911144,2.772757,782.04,41.70,highres
2.254631,66315128506,3.493850,-0.527106,-9.106508,0.014827,0.037961,0.018234,0.204948,0.889594,2.765649,782.04,41.70,highres
2.254631,66315148687,3.458910,-0.489313,-9.138232,-0.012662,0.003753,0.008154,0.207858,0.884464,2.763475,782.04,41.70,highres
2.254631,66315169101,3.392575,-0.344359,-9.104227,-0.050230,-0.015184,0.009071,0.207858,0.884464,2.763475,782.04,41.70,highres
2.254631,66315192211,3.453550,-0.337149,-9.009500,-0.016021,-0.007603,0.036921,0.207858,0.884464,2.763475,782.04,41.70,highres
2.254631,66315208023,3.546394,-0.538729,-8.966177,0.025517,0.004058,0.044196,0.207858,0.884464,2.763475,782.05,41.70,highres
2.254631,66315223736,3.516437,-0.561832,-9.054182,0.061341,0.003330,0.012748,0.207858,0.884464,2.763475,782.05,41.70,highres
2.254631,66315243857,3.454874,-0.482108,-9.286292,0.040789,-0.010297,-0.011088,0.207858,0.884464,2.763475,782.05,41.70,highres
2.254631,66315276049,3.449997,-0.416912,-9.138232,-0.080899,-0.026845,0.014228,0.204295,0.888840,2.769989,782.05,41.70,highres
2.254695,66315295164,3.495946,-0.353762,-9.016604,-0.023397,-0.026628,0.013854,0.202240,0.878349,2.780986,782.05,41.50,highres
2.254695,66315315746,3.439183,-0.461612,-9.146235,0.033144,-0.023326,-0.008418,0.202240,0.878349,2.780986,782.05,41.50,highres
2.254695,66315332033,3.303436,-0.342918,-9.232278,-0.007090,-0.023020,-0.009187,0.202240,0.878349,2.780986,782.05,41.50,highres
2.254695,66315351237,3.269413,-0.279725,-9.091839,-0.024416,-0.021559,0.030103,0.202240,0.878349,2.780986,782.05,41.50,highres
2.254695,66315371110,3.304347,-0.394398,-9.090850,-0.012287,-0.019290,0.047590,0.202240,0.878349,2.780986,782.05,41.30,highres
2.254695,66315388706,3.469924,-0.442388,-9.094111,0.009682,-0.007126,0.046151,0.202240,0.878349,2.780986,782.05,41.30,highres
2.254695,66315408131,3.513802,-0.498636,-9.159912,0.061499,0.015485,0.030942,0.200806,0.890616,2.771740,782.05,41.30,highres
2.254695,66315428920,3.557147,-0.590610,-9.367224,0.047814,0.018414,0.005405,0.200342,0.886272,2.776840,782.05,41.30,highres
2.254695,66315439223,3.521807,-0.591430,-9.426035,0.001898,0.001479,-0.002013,0.200342,0.886272,2.776840,782.05,41.30,highres
2.254761,66315468695,3.479574,-0.406946,-9.154679,-0.117120,-0.032288,0.011514,0.200342,0.886272,2.776840,782.05,41.30,highres
2.254761,66315491531,3.396866,-0.439825,-9.099062,-0.003393,0.012201,0.003110,0.200342,0.886272,2.776840,782.05,41.30,highres
2.254761,66315514692,3.418693,-0.542372,-8.987312,0.062040,0.057495,-0.031722,0.200342,0.886272,2.776840,782.05,41.30,highres
2.254788,66315535630,3.274245,-0.285491,-8.938164,0.000931,0.010556,-0.028809,0.200342,0.886272,2.776840,782.05,41.30,highres
2.254788,66315554342,3.453684,-0.244206,-8.878287,-0.013273,-0.053668,0.048777,0.209113,0.882843,2.771563,782.05,41.30,highres
2.302114,66315571968,3.510809,-0.516011,-9.047202,0.024629,-0.053707,0.037473,0.197964,0.872671,2.767976,782.05,41.30,highres
2.331200,66315592794,3.446231,-0.503919,-9.224179,0.023684,-0.027096,-0.006506,0.197964,0.872671,2.767976,782.05,41.30,highres
2.338012,66315613411,3.309237,-0.415042,-9.386250,-0.007112,-0.026157,-0.011661,0.197964,0.872671,2.767976,782.04,41.30,highres
2.367212,66315634878,3.386378,-0.366258,-9.298396,-0.045954,-0.020987,0.024342,0.197964,0.872671,2.767976,782.04,41.30,highres
2.381654,66315651644,3.395355,-0.447659,-9.256051,-0.008155,-0.009455,0.016056,0.197964,0.872671,2.767976,782.04,41.30,highres
2.401522,66315671389,3.309798,-0.399644,-9.196646,-0.009251,0.012127,0.006602,0.197964,0.872671,2.767976,782.04,41.30,highres
2.417641,66315694483,3.264279,-0.363864,-9.111657,-0.043801,0.018405,0.038699,0.206037,0.885428,2.766657,782.04,41.30,highres
2.437622,66315711916,3.344782,-0.391110,-8.952531,-0.026265,0.025803,0.058672,0.194568,0.893103,2.778924,782.04,41.30,highres
2.469029,66315734556,3.505365,-0.481567,-8.991735,0.028559,0.027262,0.038727,0.194568,0.893103,2.778924,782.04,41.30,highres
2.483121,66315749961,3.602426,-0.511115,-9.017761,0.031795,0.014710,0.016823,0.194568,0.893103,2.778924,782.04,41.30,highres
2.500594,66315771991,3.461793,-0.436884,-9.137991,0.006901,-0.036573,-0.003450,0.194568,0.893103,2.778924,782.05,41.30,highres
2.518178,66315796523,3.333138,-0.422346,-9.192371,-0.028689,-0.070026,0.028045,0.194568,0.893103,2.778924,782.05,41.30,highres
2.548347,66315812183,3.334358,-0.497626,-9.265495,-0.007323,-0.045282,0.032067,0.194568,0.893103,2.778924,782.05,41.30,highres
2.564044,66315833291,3.385089,-0.532205,-9.297023,0.002524,0.012361,0.018317,0.210270,0.884147,2.770763,782.05,41.30,highres
2.583067,66315851843,3.447660,-0.459312,-9.193380,0.010120,0.039810,0.009683,0.196802,0.878948,2.771610,782.05,41.30,highres
2.600120,66315869810,3.422075,-0.356928,-9.113929,0.000487,0.036425,0.006629,0.196802,0.878948,2.771610,782.05,41.30,highres
2.632895,66315896985,3.360737,-0.276669,-8.932920,-0.006459,-0.006782,0.020341,0.196802,0.878948,2.771610,782.05,41.30,highres
2.638601,66315909151,3.314953,-0.288632,-8.937976,0.004597,-0.026828,0.025307,0.196802,0.878948,2.771610,782.05,41.30,highres
2.665517,66315937011,3.322821,-0.457615,-9.087031,0.013688,-0.052126,0.050752,0.196802,0.878948,2.771610,782.04,41.30,highres
2.682090,66315952294,3.303032,-0.514150,-9.234489,0.022034,-0.043908,0.037453,0.196802,0.878948,2.771610,782.04,41.30,highres
2.704097,66315967056,3.317865,-0.508084,-9.323301,0.021269,-0.022437,0.029867,0.203196,0.881600,2.765054,782.04,41.30,highres
2.717015,66315992206,3.389237,-0.601703,-9.503967,0.018777,0.017847,0.034046,0.212905,0.891069,2.769208,782.04,41.30,highres
2.746220,66316009904,3.452696,-0.557784,-9.425998,-0.022691,0.041643,0.029021,0.212905,0.891069,2.769208,782.05,41.30,highres
2.766115,66316027867,3.537207,-0.564969,-9.251712,-0.046183,0.054702,0.028645,0.212905,0.891069,2.769208,782.05,41.30,highres
2.781054,66316049527,3.571838,-0.630166,-9.082263,-0.037550,0.049538,0.008520,0.212905,0.891069,2.769208,782.05,41.30,highres
2.809896,66316069448,3.463620,-0.500233,-8.809669,-0.043190,0.024513,-0.024219,0.212905,0.891069,2.769208,782.05,41.30,highres
2.833387,66316089434,3.300191,-0.258524,-8.674732,-0.032587,-0.024182,-0.023231,0.212905,0.891069,2.769208,782.05,41.30,highres
2.848061,66316112171,3.273890,-0.308953,-8.864763,0.024167,-0.072625,0.007163,0.206490,0.891213,2.767655,782.05,41.30,highres
2.864719,66316121994,3.270705,-0.427077,-9.083486,0.044354,-0.076611,0.013570,0.195160,0.875510,2.784529,782.05,41.30,highres
2.889293,66316144358,3.300916,-0.479252,-9.485781,0.032176,-0.056015,0.002934,0.195160,0.875510,2.784529,782.05,41.30,highres
2.899120,66316159387,3.309767,-0.368309,-9.555549,0.016257,-0.022084,0.001188,0.195160,0.875510,2.784529,782.05,41.30,highres
2.930860,66316182105,3.280964,-0.335062,-9.447075,0.010524,0.031448,0.019185,0.195160,0.875510,2.784529,782.05,41.30,highres
2.937746,66316203247,3.379159,-0.464910,-9.190149,-0.025780,0.049864,0.046335,0.195160,0.875510,2.784529,782.05,41.30,highres
2.964514,66316229575,3.411566,-0.549110,-9.115940,-0.035676,0.043053,0.045213,0.195160,0.875510,2.784529,782.05,41.30,highres
2.982622,66316252203,3.428859,-0.502270,-8.956918,-0.019910,0.038794,0.019077,0.206700,0.883064,2.762033,782.06,41.30,highres
2.999769,66316270361,3.423487,-0.511101,-8.946465,-0.015090,0.025735,0.020679,0.206969,0.895544,2.767244,782.06,41.30,highres
3.030846,66316289728,3.389688,-0.438858,-8.887388,-0.012421,-0.002096,0.019668,0.206969,0.895544,2.767244,782.06,41.30,highres
3.050101,66316314723,3.453461,-0.461544,-9.024245,0.048353,-0.021177,0.028225,0.206969,0.895544,2.767244,782.06,41.30,highres
3.066883,66316329782,3.454690,-0.596619,-9.221066,0.049699,-0.020691,0.008800,0.206969,0.895544,2.767244,782.06,41.30,highres
3.089461,66316352514,3.429274,-0.505519,-9.290805,-0.015199,-0.041313,-0.004152,0.206969,0.895544,2.767244,782.06,41.30,highres
3.099362,66316372233,3.356381,-0.447084,-9.403497,-0.046359,-0.051571,0.002225,0.206969,0.895544,2.767244,782.06,41.30,highres
3.133148,66316397166,3.301057,-0.397407,-9.413875,-0.060607,0.015796,0.008446,0.206605,0.885507,2.762634,782.06,41.30,highres
3.137981,66316406920,3.279055,-0.364650,-9.307623,-0.053880,0.045283,0.013043,0.193222,0.870815,2.767153,782.06,41.30,highres
3.164793,66316427440,3.371208,-0.429920,-9.009232,-0.005791,0.075826,0.020577,0.193222,0.870815,2.767153,782.06,41.30,highres
3.182198,66316447580,3.304596,-0.369099,-8.887822,0.012131,0.050374,0.009683,0.193222,0.870815,2.767153,782.06,41.30,highres
3.211844,66316474771,3.330117,-0.366259,-8.936886,-0.016012,-0.018595,0.045521,0.193222,0.870815,2.767153,782.06,41.30,highres
3.230596,66316492193,3.484489,-0.480064,-9.071262,0.010578,-0.024653,0.048708,0.193222,0.870815,2.767153,782.06,41.30,highres
3.237229,66316509896,3.531785,-0.588734,-9.198163,0.036374,0.001495,0.020911,0.193222,0.870815,2.767153,782.06,41.30,highres
3.264631,66316533918,3.484015,-0.526779,-9.206784,0.029399,0.016463,-0.006002,0.209188,0.882421,2.766106,782.06,41.30,highres
3.264631,66316554694,3.361240,-0.444067,-9.207420,-0.030973,-0.030770,-0.004977,0.195408,0.883860,2.754503,782.06,41.30,highres
3.305165,66316572759,3.274070,-0.399017,-9.248441,-0.068568,-0.050819,0.013292,0.195408,0.883860,2.754503,782.05,41.30,highres
3.332132,66316589865,3.321695,-0.422563,-9.241559,-0.042503,-0.014802,0.027647,0.195408,0.883860,2.754503,782.05,41.30,highres
3.338844,66316606395,3.345226,-0.435105,-9.156660,0.008932,0.048199,0.024101,0.195408,0.883860,2.754503,782.05,41.30,highres
3.369761,66316633980,3.383265,-0.480875,-9.004400,0.024096,0.037448,0.014265,0.195408,0.883860,2.754503,782.05,41.30,highres
3.383958,66316653512,3.382052,-0.427855,-9.033120,-0.015779,-0.024297,0.017972,0.195408,0.883860,2.754503,782.05,41.30,highres
3.410030,66316672503,3.402906,-0.414904,-9.172357,-0.024559,-0.039017,0.030147,0.207447,0.885407,2.764811,782.05,41.30,highres
3.432298,66316689098,3.418829,-0.480974,-9.299261,-0.017534,-0.010500,0.029664,0.206258,0.884463,2.755786,782.05,41.30,highres
3.438273,66316714876,3.422290,-0.501525,-9.175100,0.025128,0.042226,0.002639,0.206258,0.884463,2.755786,782.05,41.30,highres
3.466552,66316732675,3.353543,-0.474158,-9.186559,0.023309,0.026953,-0.001981,0.206258,0.884463,2.755786,782.05,41.30,highres
3.490647,66316755176,3.368422,-0.417732,-9.195449,-0.040587,-0.003298,0.017630,0.206258,0.884463,2.755786,782.05,41.30,highres
3.499090,66316770311,3.395648,-0.433182,-9.152552,-0.043254,0.002078,0.024629,0.206258,0.884463,2.755786,782.05,41.30,highres
3.531549,66316792722,3.435457,-0.463219,-9.090110,-0.014465,0.021448,0.016404,0.206258,0.884463,2.755786,782.05,41.30,highres
3.538755,66316812841,3.415075,-0.445555,-8.996562,0.015297,0.017693,0.005326,0.207489,0.881972,2.764673,782.05,41.30,highres
3.564451,66316833086,3.357650,-0.456037,-9.050607,0.025241,-0.004208,-0.000089,0.200637,0.893668,2.760325,782.05,41.30,highres
3.581793,66316847958,3.338169,-0.423856,-9.131617,0.004706,-0.017512,0.013437,0.200637,0.893668,2.760325,782.05,41.30,highres
3.599388,66316872762,3.368948,-0.491659,-9.221403,-0.036669,-0.013477,0.022818,0.200637,0.893668,2.760325,782.05,41.30,highres
3.631451,66316896427,3.381933,-0.351551,-9.149570,-0.022108,-0.001897,0.024602,0.200637,0.893668,2.760325,782.06,41.30,highres
3.637676,66316912949,3.458201,-0.446461,-9.152356,0.015162,0.005566,0.031676,0.200637,0.893668,2.760325,782.06,41.30,highres
3.668376,66316933131,3.457347,-0.539916,-9.218536,0.021533,0.023368,0.000808,0.200637,0.893668,2.760325,782.06,41.30,highres
3.681496,66316951042,3.369991,-0.444190,-9.191735,-0.011226,0.009595,-0.010599,0.206366,0.882329,2.770652,782.06,41.30,highres
3.708541,66316973633,3.303081,-0.391892,-9.238833,-0.058114,-0.009295,0.019431,0.216450,0.873895,2.753573,782.07,41.30,highres
3.717148,66316993088,3.347386,-0.379532,-9.142885,-0.048176,0.020148,0.037156,0.216450,0.873895,2.753573,782.07,41.30,highres
3.746485,66317015833,3.410490,-0.417903,-8.986080,0.023085,0.059322,0.035772,0.216450,0.873895,2.753573,782.07,41.30,highres
3.765201,66317031257,3.447945,-0.476391,-8.861643,0.055516,0.047461,0.022167,0.216450,0.873895,2.753573,782.07,41.30,highres
3.783960,66317053318,3.435030,-0.484350,-9.159229,0.013106,-0.028211,0.003112,0.216450,0.873895,2.753573,782.07,41.30,highres
3.800625,66317068170,3.420505,-0.420353,-9.275311,-0.051957,-0.047274,0.013966,0.216450,0.873895,2.753573,782.07,41.30,highres
3.834123,66317093023,3.440264,-0.447328,-9.233309,-0.035410,0.002638,0.030756,0.206046,0.889314,2.770361,782.07,41.30,highres
3.840550,66317115410,3.404324,-0.547808,-9.074930,0.027388,0.039875,0.013140,0.208211,0.890886,2.762062,782.07,41.30,highres
3.865352,66317130886,3.367863,-0.516702,-9.037482,0.032352,0.028622,0.000193,0.208211,0.890886,2.762062,782.06,41.30,highres
3.882246,66317155365,3.363791,-0.429841,-9.156101,-0.021487,-0.026709,0.006802,0.208211,0.890886,2.762062,782.06,41.30,highres
3.910183,66317171430,3.440395,-0.391171,-9.172403,-0.054936,-0.035420,0.028354,0.208211,0.890886,2.762062,782.06,41.30,highres
3.933070,66317193161,3.471675,-0.428616,-9.171981,-0.007184,0.011319,0.019090,0.208211,0.890886,2.762062,782.06,41.30,highres
3.945717,66317216413,3.402464,-0.481482,-8.991755,0.033652,0.034951,0.005401,0.208211,0.890886,2.762062,782.05,41.30,highres
3.965256,66317231597,3.331976,-0.467142,-9.025242,0.022822,-0.010384,-0.003552,0.207159,0.886213,2.767959,782.05,41.30,highres
3.987349,66317253559,3.362751,-0.430327,-9.274044,-0.057252,-0.056902,0.017745,0.213192,0.897601,2.758242,782.05,41.30,highres
4.001119,66317275657,3.419190,-0.377931,-9.303592,-0.042973,-0.012827,0.025015,0.213192,0.897601,2.758242,782.05,41.30,highres
4.031983,66317298308,3.382172,-0.405793,-9.128933,-0.000797,0.041920,0.028407,0.213192,0.897601,2.758242,782.05,41.30,highres
4.038895,66317313616,3.427016,-0.489997,-8.995827,0.025008,0.036342,0.022810,0.213192,0.897601,2.758242,782.05,41.30,highres
4.065066,66317334011,3.406121,-0.511655,-9.039846,0.013306,0.007535,-0.003154,0.213192,0.897601,2.758242,782.05,41.30,highres
4.082676,66317353906,3.399335,-0.386593,-9.076650,-0.014393,-0.032134,0.004202,0.213192,0.897601,2.758242,782.05,41.30,highres
4.107933,66317374126,3.404159,-0.422092,-9.214096,-0.034007,-0.035374,0.021896,0.200107,0.889216,2.770800,782.06,41.30,highres
4.118756,66317391588,3.410319,-0.452446,-9.211011,-0.029431,-0.022228,0.026178,0.204866,0.885864,2.765655,782.06,41.30,highres
4.139176,66317408321,3.342567,-0.481175,-9.100375,-0.005360,0.005322,0.021840,0.204866,0.885864,2.765655,782.06,41.30,highres
4.166697,66317428666,3.433082,-0.519375,-9.082945,0.040209,0.006427,0.010989,0.204866,0.885864,2.765655,782.06,41.30,highres
4.189442,66317457005,3.364938,-0.452033,-9.274455,-0.005954,-0.002251,-0.010305,0.204866,0.885864,2.765655,782.05,41.30,highres
4.200732,66317473668,3.416259,-0.325762,-9.249997,-0.063895,-0.014927,0.016779,0.204866,0.885864,2.765655,782.05,41.30,highres
4.231058,66317488145,3.416199,-0.392783,-9.204900,-0.059974,-0.017952,0.028927,0.204866,0.885864,2.765655,782.05,41.30,highres
4.237953,66317510770,3.376019,-0.441673,-9.095525,-0.017487,0.013676,0.013682,0.204866,0.885864,2.765655,782.05,41.30,highres
4.263884,66317531201,3.288160,-0.401089,-9.036914,0.028480,0.035193,0.004217,0.213562,0.902241,2.772705,782.04,41.30,highres
4.263884,66317554162,3.286868,-0.341224,-9.057009,0.006175,0.011990,0.023051,0.213562,0.902241,2.772705,782.04,41.30,highres
4.305302,66317574384,3.388129,-0.349821,-9.064516,-0.033624,-0.030848,0.050336,0.213562,0.902241,2.772705,782.04,41.30,highres
4.317872,66317593783,3.470865,-0.461016,-9.113696,0.004732,-0.027794,0.049619,0.213562,0.902241,2.772705,782.04,41.30,highres
4.346626,66317613972,3.467184,-0.568541,-9.242144,0.040515,0.014289,0.019904,0.213562,0.902241,2.772705,782.04,41.30,highres
4.365711,66317636945,3.375168,-0.470552,-9.218388,0.002882,0.022255,-0.002000,0.213562,0.902241,2.772705,782.04,41.30,highres
4.383864,66317651249,3.369393,-0.368488,-9.096599,-0.036869,-0.016342,0.019780,0.213562,0.902241,2.772705,782.04,41.30,highres
4.400365,66317674334,3.401311,-0.482669,-9.149061,-0.026329,-0.037560,0.037797,0.203091,0.880897,2.772161,782.04,41.30,highres
4.432181,66317694456,3.375869,-0.490969,-9.167627,-0.036424,-0.013932,0.027400,0.203091,0.880897,2.772161,782.05,41.30,highres
4.449225,66317716461,3.435457,-0.499131,-9.062577,0.023566,0.018300,0.012518,0.203091,0.880897,2.772161,782.05,41.30,highres
4.465471,66317734093,3.398736,-0.457093,-9.168823,0.037671,0.023602,-0.009810,0.203091,0.880897,2.772161,782.05,41.30,highres
4.482914,66317754121,3.343589,-0.322250,-9.165479,-0.016588,-0.008494,0.006326,0.203091,0.880897,2.772161,782.05,41.30,highres
4.498132,66317768901,3.395942,-0.420821,-9.095502,-0.039114,-0.030867,0.036716,0.203091,0.880897,2.772161,782.05,41.30,highres
4.519325,66317784661,3.399546,-0.548210,-9.167919,-0.013384,-0.040740,0.029945,0.203091,0.880897,2.772161,782.05,41.30,highres
4.537673,66317809941,3.289625,-0.410198,-9.211538,-0.001622,-0.006051,0.005410,0.206562,0.889212,2.760697,782.05,41.30,highres
4.565102,66317831718,3.275053,-0.330138,-9.163468,0.010844,0.022904,0.024258,0.206562,0.889212,2.760697,782.05,41.30,highres
4.581960,66317842717,3.321440,-0.394498,-9.154818,0.010290,0.031823,0.036870,0.206562,0.889212,2.760697,782.05,41.30,highres
4.602135,66317857769,3.446231,-0.478781,-9.242134,0.000211,0.017467,0.037175,0.206562,0.889212,2.760697,782.05,41.30,highres
4.622262,66317889619,3.499001,-0.501245,-9.126301,-0.043339,-0.017580,0.025639,0.206562,0.889212,2.760697,782.05,41.30,highres
4.637321,66317911492,3.372014,-0.490752,-9.182282,0.005165,0.001868,0.001666,0.206562,0.889212,2.760697,782.05,41.30,highres
4.664816,66317931104,3.309847,-0.434989,-9.066030,-0.017049,0.020385,0.008147,0.206562,0.889212,2.760697,782.04,41.30,highres
4.682496,66317946687,3.295625,-0.365694,-8.935229,-0.017361,0.015459,0.014983,0.207467,0.879860,2.745828,782.04,41.30,highres
4.697550,66317966819,3.366115,-0.451763,-9.041033,0.016350,-0.008860,0.030713,0.207467,0.879860,2.745828,782.04,41.30,highres
4.732812,66317987478,3.488246,-0.614676,-9.305187,0.010290,-0.033540,0.027401,0.207467,0.879860,2.745828,782.04,41.30,highres
4.737094,66318008913,3.541995,-0.541028,-9.434860,-0.003740,-0.017920,-0.000718,0.207467,0.879860,2.745828,782.05,41.30,highres
4.765292,66318034872,3.404406,-0.436253,-9.258404,-0.024350,0.029703,-0.021576,0.207467,0.879860,2.745828,782.05,41.30,highres
4.781902,66318055449,3.291193,-0.300417,-8.987745,-0.031709,0.008594,0.000226,0.207467,0.879860,2.745828,782.05,41.30,highres
4.801957,66318071726,3.222808,-0.391876,-8.948831,-0.029553,-0.029058,0.011430,0.207467,0.879860,2.745828,782.05,41.30,highres
4.830660,66318097677,3.330729,-0.458399,-9.143375,0.005872,-0.011231,0.008764,0.199820,0.879258,2.759922,782.05,41.30,highres
4.839877,66318114302,3.288654,-0.363750,-9.125149,0.048248,0.020911,-0.002336,0.199820,0.879258,2.759922,782.05,41.30,highres
4.863886,66318132377,3.288857,-0.292118,-9.227221,0.018734,0.014656,0.025023,0.199820,0.879258,2.759922,782.05,41.30,highres
4.880879,66318152241,3.358469,-0.402422,-9.204556,-0.032093,-0.009456,0.047442,0.199820,0.879258,2.759922,782.05,41.30,highres
4.905422,66318171630,3.466577,-0.491328,-9.247499,-0.021634,-0.005485,0.039586,0.199820,0.879258,2.759922,782.05,41.30,highres
4.932942,66318197212,3.380217,-0.512123,-9.178023,-0.017738,0.022982,0.014151,0.199820,0.879258,2.759922,782.05,41.30,highres
4.938066,66318216779,3.385407,-0.432743,-9.026035,0.004536,0.024327,0.015407,0.199820,0.879258,2.759922,782.05,41.30,highres
4.965584,66318232428,3.344803,-0.426637,-9.025762,0.007713,0.008343,0.019206,0.209003,0.885213,2.767962,782.05,41.30,highres
4.984614,66318249561,3.376713,-0.472244,-9.049414,-0.012458,-0.009331,0.025954,0.213153,0.870546,2.750842,782.04,41.30,highres
4.999529,66318271855,3.416032,-0.479726,-9.104011,-0.017552,-0.028054,0.025580,0.213153,0.870546,2.750842,782.04,41.30,highres
5.018920,66318291778,3.402953,-0.486008,-9.133800,0.022143,-0.025458,0.014174,0.213153,0.870546,2.750842,782.04,41.30,highres
5.041219,66318309568,3.361340,-0.490039,-9.189009,0.043797,-0.010550,0.007119,0.213153,0.870546,2.750842,782.04,41.30,highres
5.064923,66318334568,3.347265,-0.463249,-9.342578,0.006976,0.002274,-0.002016,0.213153,0.870546,2.750842,782.05,41.30,highres
5.086351,66318351929,3.376196,-0.446719,-9.365004,-0.053802,-0.007294,0.014854,0.213153,0.870546,2.750842,782.05,41.30,highres
5.100752,66318372733,3.435528,-0.443498,-9.331617,-0.064303,0.005105,0.013626,0.209699,0.889322,2.766522,782.05,41.30,highres
5.131532,66318395134,3.343285,-0.397601,-9.064737,-0.037388,0.035191,0.008593,0.209699,0.889322,2.766522,782.05,41.30,highres
5.138742,66318407838,3.291237,-0.356977,-8.923917,-0.003832,0.041305,0.009537,0.209699,0.889322,2.766522,782.06,41.30,highres
5.169224,66318428139,3.284224,-0.414132,-8.915321,0.027535,0.019494,0.015356,0.209699,0.889322,2.766522,782.06,41.30,highres
5.181748,66318447864,3.349529,-0.415765,-9.051179,-0.014164,-0.033833,0.027201,0.209699,0.889322,2.766522,782.06,41.30,highres
5.209231,66318473178,3.448625,-0.416535,-9.189465,0.013575,-0.042147,0.035451,0.209699,0.889322,2.766522,782.06,41.30,highres
5.219809,66318488359,3.377690,-0.537275,-9.322176,0.057738,-0.010908,0.030159,0.209699,0.889322,2.766522,782.05,41.30,highres
5.237834,66318510239,3.334039,-0.580779,-9.375113,0.027089,0.021743,0.012130,0.216126,0.894545,2.760794,782.05,41.30,highres
5.265350,66318527249,3.364992,-0.443401,-9.218305,-0.021848,0.025541,0.009381,0.216126,0.894545,2.760794,782.05,41.30,highres
5.270270,66318552220,3.422289,-0.453643,-9.291214,-0.033869,0.006472,0.018457,0.216126,0.894545,2.760794,782.05,41.30,highres
5.310834,66318567069,3.433089,-0.503049,-9.205949,-0.067307,0.008426,0.019054,0.216126,0.894545,2.760794,782.06,41.30,highres
5.331269,66318587358,3.374408,-0.389002,-8.942872,-0.061487,0.007999,0.007548,0.216126,0.894545,2.760794,782.06,41.30,highres
5.337701,66318612098,3.286131,-0.383956,-8.874429,0.039130,-0.002602,0.003056,0.216126,0.894545,2.760794,782.06,41.30,highres
5.367227,66318629534,3.244611,-0.421290,-9.066248,0.049478,-0.011761,0.003407,0.216126,0.894545,2.760794,782.06,41.30,highres
5.382518,66318652745,3.348706,-0.441250,-9.306564,-0.027770,-0.027006,0.028583,0.218068,0.900986,2.765477,782.06,41.30,highres
5.398228,66318669787,3.463659,-0.449844,-9.356206,-0.032274,-0.017267,0.030705,0.218068,0.900986,2.765477,782.06,41.30,highres
5.431221,66318692184,3.439695,-0.513222,-9.377951,-0.006837,0.037420,0.011728,0.218068,0.900986,2.765477,782.06,41.30,highres
5.437033,66318708268,3.371661,-0.468040,-9.197492,-0.003079,0.059523,-0.006528,0.218068,0.900986,2.765477,782.06,41.30,highres
5.465450,66318726414,3.285826,-0.326818,-8.955051,-0.012298,0.034561,-0.008639,0.218068,0.900986,2.765477,782.06,41.30,highres
5.481523,66318747572,3.312706,-0.373228,-8.946533,-0.029933,-0.021528,0.025925,0.218068,0.900986,2.765477,782.06,41.30,highres
5.501749,66318765466,3.329299,-0.420944,-8.989738,-0.024093,-0.039474,0.038763,0.218068,0.900986,2.765477,782.06,41.30,highres
5.530889,66318791950,3.362437,-0.445264,-9.130809,0.033877,-0.010760,0.029407,0.209405,0.884555,2.763203,782.06,41.30,highres
5.543088,66318807512,3.364648,-0.471375,-9.223467,0.038099,0.007377,0.024043,0.209405,0.884555,2.763203,782.05,41.30,highres
5.567171,66318829730,3.420737,-0.452363,-9.342521,0.007861,-0.012170,0.019156,0.209405,0.884555,2.763203,782.05,41.30,highres
5.583873,66318846166,3.403137,-0.488357,-9.380993,-0.031718,-0.030231,0.020572,0.209405,0.884555,2.763203,782.05,41.30,highres
5.599587,66318866841,3.390408,-0.474605,-9.289989,-0.041185,-0.008423,0.023378,0.209405,0.884555,2.763203,782.05,41.30,highres
5.631286,66318887427,3.319604,-0.470966,-9.104791,-0.012557,0.034332,0.011810,0.209405,0.884555,2.763203,782.05,41.30,highres
5.637854,66318910966,3.339693,-0.430899,-8.935691,0.014223,0.039161,0.013014,0.209405,0.884555,2.763203,782.05,41.30,highres
5.664396,66318935926,3.363084,-0.448144,-9.020844,0.018529,0.002155,0.008607,0.218349,0.880409,2.751888,782.05,41.30,highres
5.682102,66318948005,3.384341,-0.424202,-9.146086,-0.009342,-0.018725,0.010570,0.218349,0.880409,2.751888,782.05,41.30,highres
5.701158,66318973786,3.422290,-0.424160,-9.240621,-0.034178,-0.038374,0.020651,0.218349,0.880409,2.751888,782.05,41.30,highres
5.731078,66318992288,3.403140,-0.499725,-9.294803,0.003735,-0.005911,0.004497,0.218349,0.880409,2.751888,782.05,41.30,highres
5.738929,66319012402,3.323927,-0.476182,-9.236383,0.023647,0.032169,-0.008780,0.218349,0.880409,2.751888,782.05,41.30,highres
5.765655,66319030454,3.253283,-0.400503,-9.165323,-0.002829,0.033644,0.001746,0.218349,0.880409,2.751888,782.05,41.30,highres
5.782995,66319052367,3.308294,-0.392483,-9.071848,-0.046720,0.000076,0.032750,0.218349,0.880409,2.751888,782.05,41.30,highres
5.799182,66319073862,3.407480,-0.476979,-9.146361,-0.014782,0.002144,0.030422,0.221229,0.877444,2.746480,782.05,41.30,highres
5.831108,66319092520,3.382210,-0.443129,-9.098965,0.001959,0.025490,0.015671,0.221229,0.877444,2.746480,782.05,41.30,highres
5.837087,66319112750,3.388019,-0.373528,-9.005523,0.030019,0.026592,0.018711,0.221229,0.877444,2.746480,782.05,41.30,highres
5.866068,66319133350,3.373211,-0.439278,-9.027864,0.022522,-0.023471,0.018545,0.221229,0.877444,2.746480,782.05,41.30,highres
5.882657,66319157935,3.374412,-0.512692,-9.359560,-0.034356,-0.057273,0.018036,0.221229,0.877444,2.746480,782.05,41.30,highres
5.899094,66319173002,3.388656,-0.497317,-9.423276,-0.051025,-0.020472,0.011704,0.221229,0.877444,2.746480,782.05,41.30,highres
5.919067,66319187612,3.413452,-0.414163,-9.305534,-0.017325,0.029372,0.007886,0.211292,0.887661,2.768435,782.05,41.30,highres
5.937263,66319208065,3.336662,-0.413682,-9.120790,0.013432,0.064114,0.006527,0.203968,0.897835,2.761486,782.05,41.30,highres
5.965558,66319229997,3.307373,-0.405761,-8.950055,-0.000595,0.025688,0.012278,0.203968,0.897835,2.761486,782.05,41.30,highres
5.981495,66319247879,3.358351,-0.445264,-9.102451,-0.021190,-0.024723,0.022821,0.203968,0.897835,2.761486,782.05,41.30,highres
6.000545,66319268392,3.403162,-0.415388,-9.204975,-0.031386,-0.020415,0.022973,0.203968,0.897835,2.761486,782.05,41.30,highres
6.019267,66319288109,3.389969,-0.410549,-9.147569,-0.011687,0.010126,0.021599,0.203968,0.897835,2.761486,782.05,41.30,highres
6.037962,66319307804,3.379196,-0.469205,-9.079338,0.018533,0.017139,0.017921,0.203968,0.897835,2.761486,782.05,41.30,highres
6.064753,66319326689,3.321649,-0.489292,-9.199595,0.024615,-0.000397,0.005126,0.209511,0.890359,2.767924,782.05,41.30,highres
6.082630,66319346552,3.381496,-0.442966,-9.221258,-0.025311,-0.017668,0.021880,0.209511,0.890359,2.767924,782.05,41.30,highres
6.100174,66319373365,3.411516,-0.481422,-9.198795,-0.018503,0.007112,0.021583,0.199685,0.875101,2.773343,782.05,41.30,highres
6.132662,66319387905,3.369620,-0.435387,-9.090654,-0.018158,0.026673,0.011715,0.199685,0.875101,2.773343,782.05,41.30,highres
6.144143,66319409098,3.371684,-0.389291,-9.021340,0.007188,0.023120,0.008556,0.199685,0.875101,2.773343,782.05,41.30,highres
6.164797,66319418302,3.355941,-0.425251,-9.072786,0.020956,0.011957,0.005793,0.199685,0.875101,2.773343,782.05,41.30,highres
6.185150,66319452891,3.385181,-0.457234,-9.255302,-0.026035,-0.041945,0.024506,0.199685,0.875101,2.773343,782.06,41.30,highres
6.198609,66319470752,3.374827,-0.475530,-9.331674,-0.019323,-0.005756,0.019461,0.210668,0.882921,2.772485,782.06,41.30,highres
6.230224,66319492982,3.363634,-0.368653,-9.084125,-0.008988,0.047819,0.014487,0.201885,0.887246,2.769427,782.06,41.30,highres
6.237711,66319515268,3.391742,-0.443976,-8.972964,0.030491,0.031727,0.011742,0.201885,0.887246,2.769427,782.06,41.30,highres
6.264539,66319521352,3.387325,-0.456490,-9.040833,0.030780,0.015129,0.007324,0.201885,0.887246,2.769427,782.07,41.30,highres
6.279420,66319548124,3.399072,-0.360252,-9.187005,-0.045347,-0.044812,0.015045,0.201885,0.887246,2.769427,782.07,41.30,highres
6.279420,66319563119,3.382211,-0.502102,-9.244544,-0.034926,-0.032660,0.033360,0.201885,0.887246,2.769427,782.07,41.30,highres
6.331312,66319584221,3.334894,-0.431424,-9.101374,-0.014741,0.017457,0.017629,0.201885,0.887246,2.769427,782.07,41.30,highres
6.344613,66319598145,3.313543,-0.374915,-9.006961,0.009027,0.035092,0.011653,0.206610,0.884174,2.770730,782.08,41.30,highres
6.364870,66319624082,3.339520,-0.486957,-9.189322,0.030720,0.000524,0.022992,0.187955,0.887315,2.763932,782.08,41.30,highres
6.383639,66319646095,3.458201,-0.505116,-9.287622,-0.018765,-0.026234,0.029846,0.187955,0.887315,2.763932,782.08,41.30,highres
6.398717,66319663403,3.452904,-0.458648,-9.242276,-0.031235,-0.013837,0.018845,0.187955,0.887315,2.763932,782.08,41.30,highres
6.423210,66319682151,3.399876,-0.435399,-9.139311,-0.028367,0.005571,0.013070,0.187955,0.887315,2.763932,782.07,41.30,highres
6.438357,66319709045,3.349270,-0.408155,-9.014696,-0.021062,0.013330,0.011103,0.187955,0.887315,2.763932,782.07,41.30,highres
6.465498,66319732129,3.308901,-0.405500,-9.041043,0.000525,-0.009769,0.006884,0.187955,0.887315,2.763932,782.07,41.30,highres
6.482977,66319753600,3.316933,-0.394760,-9.137871,-0.021058,-0.027148,0.022710,0.204976,0.884442,2.773953,782.07,41.30,highres
6.500644,66319773731,3.386634,-0.438093,-9.265343,-0.006237,-0.013592,0.023922,0.208204,0.888267,2.781100,782.06,41.30,highres
6.517518,66319795728,3.351058,-0.414715,-9.228703,0.003892,0.011098,0.018121,0.208204,0.888267,2.781100,782.06,41.30,highres
6.544007,66319811252,3.350761,-0.395161,-9.127828,0.018271,0.021296,0.021742,0.208204,0.888267,2.781100,782.06,41.30,highres
6.567123,66319831954,3.394757,-0.491949,-9.146369,0.031394,0.016834,0.017324,0.208204,0.888267,2.781100,782.06,41.30,highres
6.581730,66319856291,3.384563,-0.522044,-9.191361,-0.003340,-0.000901,0.007614,0.208204,0.888267,2.781100,782.06,41.30,highres
6.609305,66319874396,3.399388,-0.406162,-9.177178,-0.040688,-0.022261,0.016774,0.208204,0.888267,2.781100,782.06,41.30,highres
6.618343,66319890964,3.343503,-0.424980,-9.143215,-0.031770,-0.007368,0.019673,0.207022,0.887875,2.763488,782.06,41.30,highres
6.637868,66319908090,3.358846,-0.428505,-9.057789,0.000851,0.011947,0.018851,0.207022,0.887875,2.763488,782.06,41.30,highres
6.665010,66319928502,3.313787,-0.437449,-9.070211,0.027567,0.015307,0.009015,0.209941,0.880616,2.761364,782.06,41.30,highres
6.681297,66319951051,3.338532,-0.386185,-9.122079,-0.011221,-0.024447,0.021095,0.209941,0.880616,2.761364,782.06,41.30,highres
6.698256,66319973960,3.415962,-0.444360,-9.227991,-0.016135,-0.037554,0.030023,0.209941,0.880616,2.761364,782.06,41.30,highres
6.718264,66319991084,3.374408,-0.478781,-9.290017,0.009708,-0.000881,0.012132,0.209941,0.880616,2.761364,782.06,41.30,highres
6.738646,66320012313,3.316949,-0.458001,-9.200628,0.015326,0.039511,0.013048,0.209941,0.880616,2.761364,782.06,41.30,highres
6.765919,66320034087,3.307575,-0.442668,-9.087600,-0.007027,0.010364,0.018188,0.205053,0.887381,2.761958,782.06,41.30,highres
6.781946,66320054105,3.398594,-0.453807,-9.198744,-0.022831,-0.026905,0.027893,0.214697,0.896010,2.765090,782.06,41.30,highres
6.799411,66320069357,3.401802,-0.474639,-9.293132,-0.024500,-0.015025,0.017629,0.214697,0.896010,2.765090,782.06,41.30,highres
6.831368,66320094410,3.394342,-0.412691,-9.140979,-0.015026,0.030755,0.018716,0.214697,0.896010,2.765090,782.06,41.30,highres
6.847977,66320111727,3.381591,-0.471541,-8.962084,0.012254,0.025240,0.014244,0.214697,0.896010,2.765090,782.06,41.30,highres
6.864537,66320135748,3.352257,-0.502299,-9.112973,-0.000716,-0.006471,-0.004232,0.214697,0.896010,2.765090,782.06,41.30,highres
6.881181,66320154735,3.301913,-0.366003,-9.085321,-0.031188,-0.034510,0.010572,0.214697,0.896010,2.765090,782.06,41.30,highres
6.898262,66320168126,3.328294,-0.341305,-9.149300,-0.007702,-0.036616,0.025571,0.209487,0.885441,2.767476,782.06,41.30,highres
6.931724,66320190938,3.335464,-0.459063,-9.300359,0.026447,0.003414,0.027423,0.208015,0.874148,2.759069,782.06,41.30,highres
6.939156,66320213579,3.313091,-0.457966,-9.230747,0.003935,0.042323,0.022959,0.208015,0.874148,2.759069,782.06,41.30,highres
6.965538,66320230894,3.407160,-0.492871,-9.112766,0.006496,0.028125,0.021758,0.208015,0.874148,2.759069,782.06,41.30,highres
6.983248,66320255287,3.385223,-0.496778,-9.221491,-0.034743,-0.011685,0.003579,0.208015,0.874148,2.759069,782.06,41.30,highres
6.998858,66320271554,3.374591,-0.318654,-9.120589,-0.062989,-0.025376,0.015000,0.208015,0.874148,2.759069,782.06,41.30,highres
7.033163,66320297645,3.348566,-0.426321,-9.089547,0.011518,0.003231,0.026380,0.208015,0.874148,2.759069,782.06,41.30,highres
7.038528,66320314652,3.315030,-0.476160,-9.047943,0.030649,0.021989,0.013889,0.207087,0.881716,2.767096,782.06,41.30,highres
7.064679,66320331497,3.298869,-0.449445,-9.006379,0.025253,0.003316,0.010373,0.207087,0.881716,2.767096,782.06,41.30,highres
7.082608,66320351240,3.368475,-0.453140,-9.275894,0.011418,-0.032093,0.028826,0.208261,0.877241,2.768711,782.06,41.30,highres
7.105453,66320366706,3.404416,-0.501566,-9.413733,-0.007637,-0.023698,0.029500,0.208261,0.877241,2.768711,782.06,41.30,highres
7.118339,66320391598,3.419619,-0.422519,-9.254381,-0.025794,0.027970,0.017207,0.208261,0.877241,2.768711,782.06,41.30,highres
7.146382,66320414287,3.346646,-0.429506,-9.073892,-0.005254,0.017732,0.023587,0.208261,0.877241,2.768711,782.06,41.30,highres
7.164708,66320431554,3.339565,-0.511061,-9.083015,-0.003153,0.003235,0.018917,0.208261,0.877241,2.768711,782.06,41.30,highres
7.183608,66320451552,3.345679,-0.497951,-9.143469,-0.016353,0.013301,0.002734,0.209710,0.882669,2.766666,782.06,41.30,highres
7.199313,66320472179,3.358612,-0.378172,-9.090078,-0.005955,0.012226,0.006157,0.210605,0.878215,2.765141,782.06,41.30,highres
7.232350,66320491493,3.350969,-0.396765,-9.109650,-0.015392,-0.010260,0.031608,0.210605,0.878215,2.765141,782.06,41.30,highres
7.237342,66320512343,3.369619,-0.462022,-9.128415,-0.016254,-0.012487,0.034734,0.210605,0.878215,2.765141,782.06,41.30,highres
7.264960,66320535226,3.389556,-0.474012,-9.079159,0.021218,0.000161,0.018171,0.210605,0.878215,2.765141,782.06,41.30,highres
7.277026,66320554651,3.344481,-0.506313,-9.226573,0.030783,-0.005768,0.000220,0.210605,0.878215,2.765141,782.06,41.30,highres
7.277026,66320576511,3.341531,-0.430177,-9.349622,-0.046296,-0.019023,0.015128,0.210605,0.878215,2.765141,782.05,41.30,highres
7.317917,66320592056,3.373143,-0.400198,-9.277457,-0.056253,-0.008337,0.029769,0.208858,0.888221,2.765567,782.05,41.30,highres
7.339061,66320612618,3.380393,-0.452446,-9.146371,-0.015032,0.026608,0.024654,0.209688,0.874903,2.770760,782.05,41.30,highres
7.364829,66320632248,3.346734,-0.472126,-8.986212,0.022790,0.030128,0.011681,0.209688,0.874903,2.770760,782.05,41.30,highres
7.382569,66320651790,3.322002,-0.479047,-9.100756,0.026056,0.004472,-0.005629,0.209688,0.874903,2.770760,782.05,41.30,highres
7.398821,66320669204,3.349691,-0.381664,-9.178337,-0.022979,-0.020579,0.006775,0.209688,0.874903,2.770760,782.05,41.30,highres
7.431141,66320684674,3.387849,-0.357703,-9.223955,-0.033223,-0.029743,0.024344,0.209688,0.874903,2.770760,782.05,41.30,highres
7.438030,66320707466,3.369936,-0.504025,-9.208827,-0.016254,-0.003935,0.027403,0.209688,0.874903,2.770760,782.05,41.30,highres
7.468513,66320722763,3.347651,-0.521583,-9.128510,-0.006123,0.015969,0.018668,0.209688,0.874903,2.770760,782.05,41.30,highres
7.482169,66320741948,3.333952,-0.430670,-9.098474,0.022890,0.020462,0.003240,0.203618,0.892286,2.756552,782.05,41.30,highres
7.510442,66320762339,3.306902,-0.392263,-9.183339,0.013979,-0.007176,0.004354,0.203618,0.892286,2.756552,782.05,41.30,highres
7.518434,66320784662,3.309368,-0.404963,-9.286426,-0.025770,-0.033768,0.029657,0.203618,0.892286,2.756552,782.05,41.30,highres
7.548861,66320801700,3.342522,-0.414012,-9.167859,-0.043024,-0.012005,0.037577,0.203618,0.892286,2.756552,782.05,41.30,highres
7.564936,66320824583,3.386759,-0.512359,-9.176170,0.016441,0.036065,0.033513,0.203618,0.892286,2.756552,782.05,41.30,highres
7.588633,66320843082,3.375605,-0.470402,-9.098490,0.011091,0.044655,0.015257,0.203618,0.892286,2.756552,782.05,41.30,highres
7.597931,66320861925,3.378013,-0.362681,-9.032666,-0.018989,0.004300,0.010605,0.208885,0.887830,2.764157,782.05,41.30,highres
7.629168,66320876943,3.363915,-0.427805,-9.118499,-0.023346,-0.026746,0.024713,0.195281,0.880567,2.762373,782.05,41.30,highres
7.637464,66320899470,3.327723,-0.477584,-9.202632,0.005140,-0.024948,0.025343,0.195281,0.880567,2.762373,782.05,41.30,highres
7.664567,66320923269,3.368054,-0.511470,-9.193078,0.008504,0.000789,0.023127,0.195281,0.880567,2.762373,782.05,41.30,highres
7.683789,66320954928,3.405145,-0.500449,-9.181873,0.009189,0.002162,0.016988,0.195281,0.880567,2.762373,782.05,41.30,highres
7.698592,66320969756,3.400933,-0.484249,-9.268795,0.001780,0.006133,0.008467,0.195281,0.880567,2.762373,782.05,41.30,highres
7.732410,66320994573,3.410320,-0.453011,-9.256185,-0.026440,0.006736,0.002533,0.195281,0.880567,2.762373,782.05,41.30,highres
7.738498,66321011695,3.388910,-0.447491,-9.163964,-0.056507,0.001551,0.004489,0.203019,0.888688,2.767195,782.05,41.30,highres
7.764658,66321031885,3.270895,-0.356375,-9.051255,-0.032498,0.005940,0.003545,0.208748,0.873384,2.759707,782.05,41.30,highres
7.782623,66321054275,3.240797,-0.385691,-8.969531,0.019291,0.011263,0.017444,0.208748,0.873384,2.759707,782.04,41.30,highres
7.798905,66321069302,3.231601,-0.370209,-9.007274,0.034622,0.013287,0.024301,0.208748,0.873384,2.759707,782.04,41.30,highres
7.831957,66321092602,3.358911,-0.455125,-9.114841,0.028096,-0.010200,0.035763,0.208748,0.873384,2.759707,782.04,41.30,highres
7.838278,66321114875,3.439863,-0.477917,-9.307257,-0.023499,-0.043854,0.037178,0.208748,0.873384,2.759707,782.04,41.30,highres
7.867307,66321129792,3.447805,-0.499789,-9.344479,-0.024529,-0.032411,0.029864,0.208748,0.873384,2.759707,782.05,41.30,highres
7.881872,66321152213,3.389610,-0.568406,-9.282945,0.002579,0.024223,0.008500,0.208303,0.887638,2.767197,782.05,41.30,highres
7.901759,66321173303,3.292251,-0.471134,-9.150557,0.003611,0.037096,-0.003865,0.188766,0.899106,2.783373,782.05,41.30,highres
7.919363,66321189869,3.291864,-0.406776,-9.090813,-0.022840,0.014997,0.008719,0.188766,0.899106,2.783373,782.05,41.30,highres
7.943121,66321212336,3.382787,-0.396904,-9.115248,-0.035843,-0.013693,0.026904,0.188766,0.899106,2.783373,782.06,41.30,highres
7.967621,66321234904,3.361240,-0.409352,-9.081732,-0.001274,0.001857,0.016714,0.188766,0.899106,2.783373,782.06,41.30,highres
7.983055,66321256722,3.314435,-0.404351,-9.043016,0.025067,0.008209,0.014881,0.188766,0.899106,2.783373,782.06,41.30,highres
7.998967,66321272709,3.279731,-0.421378,-9.115577,0.018961,-0.012117,0.018401,0.188766,0.899106,2.783373,782.06,41.30,highres
8.024126,66321293329,3.313743,-0.481715,-9.274569,-0.015757,-0.032037,0.033177,0.211370,0.887731,2.763711,782.06,41.30,highres
8.037216,66321313612,3.403910,-0.505325,-9.393736,-0.019887,-0.001629,0.029632,0.191040,0.888389,2.755451,782.06,41.30,highres
8.065356,66321332787,3.399546,-0.458431,-9.273258,-0.005820,0.047096,0.019756,0.191040,0.888389,2.755451,782.06,41.30,highres
8.081881,66321352936,3.376816,-0.495513,-9.066792,0.017407,0.048125,0.022546,0.191040,0.888389,2.755451,782.06,41.30,highres
8.098660,66321367632,3.368568,-0.548546,-9.027381,0.009737,0.022485,0.014552,0.191040,0.888389,2.755451,782.06,41.30,highres
8.117280,66321392743,3.370817,-0.552998,-9.068563,-0.021188,-0.008589,0.000648,0.191040,0.888389,2.755451,782.06,41.30,highres
8.151220,66321416195,3.378461,-0.366553,-9.171782,-0.050032,-0.017242,0.012228,0.191040,0.888389,2.755451,782.06,41.30,highres
8.164709,66321434858,3.338496,-0.345909,-9.140387,-0.019600,-0.002419,0.014881,0.207339,0.884976,2.769598,782.06,41.30,highres
8.186177,66321452650,3.315122,-0.360337,-9.077006,0.015697,0.008682,0.019131,0.223097,0.880501,2.766994,782.06,41.30,highres
8.200298,66321475783,3.294754,-0.500676,-9.145769,0.045369,0.004212,0.010465,0.223097,0.880501,2.766994,782.06,41.30,highres
8.233352,66321497147,3.298259,-0.431848,-9.250147,-0.007126,-0.014583,0.011984,0.223097,0.880501,2.766994,782.06,41.30,highres
8.237560,66321512991,3.362457,-0.413268,-9.307796,-0.023761,-0.013370,0.031379,0.223097,0.880501,2.766994,782.06,41.30,highres
8.265455,66321532672,3.387817,-0.483328,-9.297906,-0.027113,0.025806,0.033573,0.223097,0.880501,2.766994,782.06,41.30,highres
8.277391,66321552745,3.404161,-0.489518,-9.080336,-0.016667,0.041641,0.026949,0.223097,0.880501,2.766994,782.06,41.30,highres
8.277391,66321573958,3.396491,-0.513496,-9.028605,0.006024,0.014877,0.007100,0.209101,0.890973,2.769390,782.06,41.30,highres
8.322284,66321587489,3.353645,-0.457234,-9.120715,0.005181,-0.002338,0.000485,0.214607,0.892653,2.778534,782.06,41.30,highres
8.337859,66321608512,3.312161,-0.445264,-9.145173,-0.021322,-0.007251,0.010119,0.214607,0.892653,2.778534,782.06,41.30,highres
8.366198,66321630991,3.342088,-0.386832,-9.125799,-0.023867,-0.003220,0.018968,0.214607,0.892653,2.778534,782.06,41.30,highres
8.381357,66321652528,3.406889,-0.490245,-9.158205,0.001187,0.003541,0.029789,0.214607,0.892653,2.778534,782.06,41.30,highres
8.397867,66321675352,3.399647,-0.501221,-9.133326,0.008230,0.011968,0.006898,0.214607,0.892653,2.778534,782.06,41.30,highres
8.431941,66321697025,3.289895,-0.373637,-9.115409,-0.000094,-0.011806,0.001896,0.214607,0.892653,2.778534,782.06,41.30,highres
8.438600,66321715894,3.346334,-0.436361,-9.234348,-0.013260,-0.029603,0.024891,0.208130,0.887587,2.760233,782.06,41.30,highres
8.470112,66321733519,3.351871,-0.497108,-9.301576,-0.034384,-0.010078,0.021791,0.205396,0.893742,2.777024,782.06,41.30,highres
8.482921,66321750795,3.403656,-0.453643,-9.219954,-0.021161,0.020124,0.020521,0.205396,0.893742,2.777024,782.06,41.30,highres
8.510389,66321772188,3.368191,-0.455099,-9.050390,0.016403,0.042270,0.009937,0.205396,0.893742,2.777024,782.05,41.30,highres
8.531877,66321792944,3.321471,-0.425003,-9.043958,-0.000427,0.005689,0.003744,0.205396,0.893742,2.777024,782.05,41.30,highres
8.550301,66321808104,3.332499,-0.371656,-9.145149,-0.040457,-0.032669,0.010992,0.205396,0.893742,2.777024,782.05,41.30,highres
8.564189,66321826158,3.405531,-0.377779,-9.170200,-0.046178,-0.037894,0.029667,0.205396,0.893742,2.777024,782.05,41.30,highres
8.589770,66321847991,3.383269,-0.535006,-9.177567,0.025006,0.013451,0.022517,0.211280,0.890165,2.765169,782.04,41.30,highres
8.599265,66321867994,3.305140,-0.487538,-9.081706,0.024701,0.023530,0.005108,0.200023,0.882424,2.763196,782.04,41.30,highres
8.629968,66321883345,3.325359,-0.401607,-9.077003,0.006536,0.003280,0.005755,0.200023,0.882424,2.763196,782.04,41.30,highres
8.638144,66321904046,3.389899,-0.454745,-9.256499,-0.007777,-0.022386,0.020175,0.200023,0.882424,2.763196,782.04,41.30,highres
8.669754,66321920884,3.412565,-0.507510,-9.222605,-0.033985,-0.016963,0.028714,0.200023,0.882424,2.763196,782.05,41.30,highres
8.682517,66321944636,3.357030,-0.465119,-9.174767,-0.008766,0.000422,0.012193,0.200023,0.882424,2.763196,782.05,41.30,highres
8.709544,66321958337,3.326526,-0.451249,-9.075746,0.004328,0.018599,0.006706,0.200023,0.882424,2.763196,782.05,41.30,highres
8.717096,66321978720,3.293008,-0.414141,-9.137992,0.027821,0.019997,-0.000139,0.211959,0.890536,2.757825,782.05,41.30,highres
8.748649,66322010920,3.352425,-0.404489,-9.142002,-0.049015,-0.025931,0.027870,0.195052,0.875691,2.768608,782.04,41.30,highres
8.764427,66322033545,3.427737,-0.462196,-9.179525,-0.019652,-0.014178,0.024137,0.195052,0.875691,2.768608,782.04,41.30,highres
8.789880,66322055727,3.363162,-0.437559,-9.155811,0.018872,0.025716,0.005805,0.195052,0.875691,2.768608,782.04,41.30,highres
8.798643,66322071379,3.296600,-0.414193,-9.060857,0.033565,0.024326,0.006443,0.195052,0.875691,2.768608,782.04,41.30,highres
8.832818,66322093425,3.263937,-0.439879,-9.127727,0.006157,-0.021695,0.013507,0.195052,0.875691,2.768608,782.04,41.30,highres
8.837394,66322110781,3.332852,-0.433989,-9.263613,-0.033485,-0.038175,0.028690,0.195052,0.875691,2.768608,782.04,41.30,highres
8.866234,66322137512,3.386037,-0.435069,-9.222705,-0.025482,-0.000388,0.031375,0.211106,0.885269,2.762929,782.04,41.30,highres
8.881005,66322154227,3.424684,-0.488357,-9.172706,0.004909,0.023541,0.020170,0.223460,0.886906,2.767173,782.04,41.30,highres
8.899585,66322168735,3.354922,-0.504371,-9.163974,0.005258,0.028231,0.004695,0.223460,0.886906,2.767173,782.04,41.30,highres
8.917406,66322194427,3.303341,-0.355295,-8.992141,-0.000353,0.005748,0.013467,0.223460,0.886906,2.767173,782.04,41.30,highres
8.938295,66322204571,3.284608,-0.379222,-9.041073,0.003182,-0.013933,0.025409,0.223460,0.886906,2.767173,782.04,41.30,highres
8.966713,66322231312,3.364831,-0.466811,-9.171507,-0.032721,-0.029310,0.034735,0.223460,0.886906,2.767173,782.04,41.30,highres
8.981918,66322251065,3.376431,-0.425650,-9.150788,0.020083,-0.000097,0.029237,0.223460,0.886906,2.767173,782.04,41.30,highres
8.999502,66322271238,3.382101,-0.550467,-9.173943,0.046514,0.019687,0.020663,0.200363,0.891825,2.769503,782.04,41.30,highres
9.032784,66322294106,3.353867,-0.536048,-9.225376,0.001919,0.005083,-0.000802,0.197383,0.890247,2.763963,782.04,41.30,highres
9.037435,66322311104,3.334905,-0.430260,-9.200987,-0.030087,-0.016003,0.004001,0.197383,0.890247,2.763963,782.04,41.30,highres
9.067802,66322328535,3.348072,-0.408656,-9.198295,-0.035160,-0.019411,0.025943,0.197383,0.890247,2.763963,782.04,41.30,highres
9.082809,66322349085,3.357649,-0.524269,-9.177495,-0.017000,-0.001530,0.017490,0.197383,0.890247,2.763963,782.04,41.30,highres
9.098921,66322371534,3.287769,-0.401335,-9.093285,-0.015006,0.011313,0.002970,0.197383,0.890247,2.763963,782.04,41.30,highres
9.118709,66322388469,3.310394,-0.346112,-9.097698,0.005137,0.011660,0.012422,0.197383,0.890247,2.763963,782.04,41.30,highres
9.144252,66322407958,3.346150,-0.492893,-9.191507,0.010345,0.008259,0.025877,0.206327,0.895047,2.764640,782.05,41.30,highres
9.165961,66322428673,3.403287,-0.480088,-9.196381,-0.043716,-0.014343,0.018547,0.227839,0.882358,2.767817,782.05,41.30,highres
9.188419,66322444411,3.363988,-0.409218,-9.106868,-0.041917,-0.020147,0.012823,0.227839,0.882358,2.767817,782.05,41.30,highres
9.201455,66322464088,3.298101,-0.435575,-9.116524,0.014621,-0.003959,0.012744,0.227839,0.882358,2.767817,782.05,41.30,highres
9.230236,66322484121,3.259491,-0.442870,-9.135599,0.031965,0.013756,0.015458,0.227839,0.882358,2.767817,782.05,41.30,highres
9.238552,66322511021,3.275002,-0.464001,-9.134400,0.001593,0.000443,0.022353,0.227839,0.882358,2.767817,782.05,41.30,highres
9.268801,66322533476,3.405313,-0.497065,-9.270756,-0.014034,-0.015760,0.027600,0.227839,0.882358,2.767817,782.05,41.30,highres
9.280768,66322547671,3.405999,-0.483219,-9.300061,-0.013374,-0.000625,0.016827,0.212580,0.890528,2.761517,782.05,41.30,highres
9.280768,66322574178,3.383721,-0.457903,-9.099659,-0.007643,0.020170,0.009689,0.227232,0.898223,2.773312,782.05,41.30,highres
9.321938,66322590880,3.317844,-0.460613,-9.052364,0.009574,0.011971,0.002680,0.227232,0.898223,2.773312,782.05,41.30,highres
9.339084,66322608445,3.267064,-0.436765,-9.103396,-0.017014,-0.010430,0.002662,0.227232,0.898223,2.773312,782.05,41.30,highres
9.365177,66322631704,3.310465,-0.377547,-9.154918,-0.039796,-0.032418,0.024825,0.227232,0.898223,2.773312,782.05,41.30,highres
9.382508,66322642090,3.344494,-0.405233,-9.180532,-0.016208,-0.022731,0.028626,0.227232,0.898223,2.773312,782.05,41.30,highres
9.400388,66322665291,3.323928,-0.475472,-9.209704,0.040583,0.027195,0.017936,0.227232,0.898223,2.773312,782.05,41.30,highres
9.430368,66322697522,3.316187,-0.462158,-9.175412,-0.004960,-0.000498,0.021538,0.227232,0.898223,2.773312,782.05,41.30,highres
9.441187,66322714036,3.366151,-0.507878,-9.278414,-0.054352,-0.020322,0.022607,0.209837,0.892597,2.760243,782.05,41.30,highres
9.464968,66322731552,3.410423,-0.417215,-9.268737,-0.048608,0.003780,0.017325,0.209837,0.892597,2.760243,782.06,41.30,highres
9.481683,66322754275,3.349610,-0.424145,-9.089732,-0.007401,0.036445,0.012111,0.209837,0.892597,2.760243,782.06,41.30,highres
9.499390,66322776853,3.303735,-0.440751,-8.889606,0.011643,0.005279,0.017723,0.209837,0.892597,2.760243,782.06,41.30,highres
9.518367,66322794254,3.321738,-0.482372,-8.952450,0.039415,-0.021718,0.015179,0.209837,0.892597,2.760243,782.06,41.30,highres
9.538923,66322818234,3.309619,-0.478453,-9.286098,0.000904,-0.015745,0.012492,0.209837,0.892597,2.760243,782.06,41.30,highres
9.565317,66322832273,3.370301,-0.410305,-9.275460,-0.022323,-0.012368,0.021601,0.209837,0.892597,2.760243,782.06,41.30,highres
9.581866,66322855485,3.398420,-0.500827,-9.307974,-0.020054,-0.005673,0.020861,0.189249,0.881694,2.773057,782.06,41.30,highres
9.601778,66322871369,3.389882,-0.537524,-9.257029,-0.007944,0.011936,0.006249,0.189249,0.881694,2.773057,782.06,41.30,highres
9.631408,66322891531,3.257967,-0.436423,-9.160007,0.011922,0.035508,-0.008445,0.189249,0.881694,2.773057,782.05,41.30,highres
9.637974,66322914904,3.232930,-0.355087,-9.044333,-0.023698,0.008027,0.025104,0.189249,0.881694,2.773057,782.05,41.30,highres
9.669860,66322932437,3.337468,-0.426981,-9.055890,-0.034551,-0.021200,0.042349,0.189249,0.881694,2.773057,782.05,41.30,highres
9.681782,66322954398,3.401940,-0.475715,-9.153786,-0.006663,-0.008215,0.021422,0.189249,0.881694,2.773057,782.05,41.30,highres
9.709309,66322971828,3.351695,-0.455975,-9.178030,0.020132,0.012870,0.014345,0.189249,0.881694,2.773057,782.05,41.30,highres
9.718933,66322991953,3.343335,-0.462653,-9.166166,0.016318,0.008259,0.014425,0.208392,0.894088,2.762151,782.05,41.30,highres
9.747291,66323012224,3.339134,-0.468206,-9.189026,-0.007459,-0.007771,0.013694,0.208392,0.894088,2.762151,782.05,41.30,highres
9.766388,66323037827,3.311725,-0.444855,-9.175919,-0.019151,-0.014661,0.024693,0.208392,0.894088,2.762151,782.05,41.30,highres
9.785999,66323046909,3.320265,-0.471875,-9.196187,-0.019269,-0.011606,0.027099,0.208392,0.894088,2.762151,782.05,41.30,highres
9.800387,66323074201,3.362628,-0.520051,-9.206223,0.000487,0.007961,0.012511,0.208392,0.894088,2.762151,782.05,41.30,highres
9.827051,66323091852,3.358447,-0.463369,-9.220839,0.008732,0.024868,0.003669,0.208392,0.894088,2.762151,782.05,41.30,highres
9.838760,66323114815,3.371349,-0.473174,-9.168893,-0.004003,0.028004,0.010606,0.208392,0.894088,2.762151,782.05,41.30,highres
9.870894,66323132113,3.386307,-0.464803,-9.106198,-0.033342,0.002581,0.010228,0.221726,0.885377,2.753071,782.05,41.30,highres
9.882761,66323151988,3.341585,-0.391253,-8.985105,-0.028769,-0.031881,0.011377,0.221726,0.885377,2.753071,782.05,41.30,highres
9.899199,66323171892,3.263889,-0.380525,-9.057642,0.020749,-0.026166,0.015976,0.221726,0.885377,2.753071,782.05,41.30,highres
9.919660,66323191933,3.261885,-0.481736,-9.258183,0.027276,-0.001375,0.015815,0.221726,0.885377,2.753071,782.05,41.30,highres
9.938728,66323214749,3.311141,-0.406687,-9.297752,-0.012385,0.011912,0.017700,0.221726,0.885377,2.753071,782.05,41.30,highres
9.968540,66323232094,3.383985,-0.419912,-9.259664,0.002100,0.012095,0.031617,0.221726,0.885377,2.753071,782.05,41.30,highres
9.986083,66323254951,3.365790,-0.532455,-9.236869,-0.008872,0.012828,0.027380,0.221726,0.885377,2.753071,782.05,41.30,highres
10.001668,66323270243,3.345192,-0.508842,-9.138881,-0.016955,0.016179,0.017492,0.206947,0.895580,2.764060,782.05,41.30,highres
10.032680,66323289052,3.373211,-0.453643,-9.045819,-0.012918,0.017892,0.014142,0.206947,0.895580,2.764060,782.04,41.30,highres
10.039212,66323307111,3.387575,-0.485963,-9.076942,0.004355,0.014873,0.011123,0.206947,0.895580,2.764060,782.04,41.30,highres
10.069356,66323332226,3.389969,-0.525466,-9.074548,-0.015290,-0.009893,0.005897,0.206947,0.895580,2.764060,782.04,41.30,highres
10.083630,66323354516,3.315601,-0.419107,-9.128361,-0.022980,-0.045593,0.001832,0.206947,0.895580,2.764060,782.04,41.30,highres
10.099348,66323374724,3.295424,-0.412985,-9.244949,-0.002569,-0.031241,0.013757,0.206947,0.895580,2.764060,782.05,41.00,highres
10.119357,66323385190,3.300745,-0.446806,-9.284315,0.009747,-0.005192,0.015798,0.206947,0.895580,2.764060,782.05,41.00,highres
10.137369,66323407127,3.260690,-0.408160,-9.183964,0.007609,0.025656,0.009689,0.204156,0.874783,2.754197,782.05,41.00,highres
10.166535,66323426044,3.298994,-0.398579,-9.158341,-0.011798,0.009804,0.023181,0.204156,0.874783,2.754197,782.05,41.00,highres
10.181899,66323449901,3.385040,-0.531170,-9.263188,-0.014569,-0.003397,0.024979,0.204156,0.874783,2.754197,782.05,41.00,highres
10.198294,66323467883,3.362437,-0.448855,-9.214603,-0.006782,0.024677,0.007726,0.204156,0.874783,2.754197,782.05,41.00,highres
10.231861,66323490185,3.314473,-0.404564,-9.080468,0.000653,0.030283,0.015142,0.204156,0.874783,2.754197,782.05,41.00,highres
10.238796,66323507676,3.362346,-0.503275,-9.077677,-0.015463,0.008940,0.029237,0.204156,0.874783,2.754197,782.05,41.00,highres
10.264947,66323523493,3.336783,-0.429537,-9.023295,-0.027121,-0.002680,0.022122,0.204156,0.874783,2.754197,782.06,41.00,highres
10.282667,66323545377,3.328920,-0.416535,-9.068563,0.005768,-0.002403,0.018763,0.214932,0.900876,2.759652,782.06,41.00,highres
10.282667,66323563022,3.381590,-0.525466,-9.143977,0.027645,-0.002541,0.023336,0.214932,0.900876,2.759652,782.06,41.00,highres
10.331240,66323587423,3.334905,-0.502722,-9.318746,0.018148,-0.020524,-0.002685,0.214932,0.900876,2.759652,782.06,41.00,highres
10.343144,66323607210,3.326568,-0.394368,-9.340787,-0.038206,-0.026267,0.016103,0.214932,0.900876,2.759652,782.06,41.00,highres
10.365227,66323626962,3.310335,-0.472684,-9.310004,-0.018508,0.006399,0.029739,0.214932,0.900876,2.759652,782.06,41.00,highres
10.382791,66323647897,3.255176,-0.455349,-9.139004,-0.006963,0.054887,0.022212,0.214932,0.900876,2.759652,782.06,41.00,highres
10.400223,66323662527,3.296809,-0.441110,-8.991565,-0.001224,0.056152,0.025718,0.214932,0.900876,2.759652,782.06,41.00,highres
10.418726,66323674876,3.378793,-0.415636,-8.984169,-0.003384,0.034705,0.026304,0.206333,0.884336,2.766931,782.06,41.00,highres
10.437940,66323714826,3.480724,-0.520844,-9.096179,0.006948,-0.009366,0.021294,0.206333,0.884336,2.766931,782.06,41.00,highres
10.467142,66323730091,3.442204,-0.548396,-9.182828,0.007411,-0.005327,0.006694,0.206333,0.884336,2.766931,782.06,41.00,highres
10.482066,66323743348,3.375345,-0.518275,-9.247391,-0.024105,-0.009163,-0.002041,0.206333,0.884336,2.766931,782.06,41.00,highres
10.502234,66323772413,3.317025,-0.381934,-9.133867,-0.014792,-0.015772,0.009465,0.206333,0.884336,2.766931,782.05,41.00,highres
10.519521,66323792363,3.281626,-0.480607,-9.270761,0.020449,0.010373,0.006329,0.206333,0.884336,2.766931,782.05,41.00,highres
10.542881,66323810818,3.277447,-0.428505,-9.269668,-0.007673,0.024597,0.009246,0.206333,0.884336,2.766931,782.05,41.00,highres
10.567130,66323835228,3.367235,-0.401926,-9.127685,-0.014332,0.022018,0.030344,0.210660,0.889633,2.765627,782.05,41.00,highres
10.582503,66323856337,3.375835,-0.444547,-9.092997,0.000655,0.023322,0.025695,0.203058,0.880951,2.767385,782.05,41.00,highres
10.599404,66323873448,3.353025,-0.445708,-8.994818,0.016803,0.017684,0.019158,0.203058,0.880951,2.767385,782.05,41.00,highres
10.621686,66323892745,3.325959,-0.466858,-9.031549,0.025947,-0.005573,0.019105,0.203058,0.880951,2.767385,782.05,41.00,highres
10.639179,66323908276,3.345679,-0.521875,-9.226573,0.007927,-0.022308,0.017630,0.203058,0.880951,2.767385,782.05,41.00,highres
10.669731,66323930365,3.441442,-0.535042,-9.357051,-0.038805,-0.009786,0.021906,0.203058,0.880951,2.767385,782.04,41.00,highres
10.681639,66323946530,3.449574,-0.494219,-9.267280,-0.038805,0.010678,0.015492,0.203058,0.880951,2.767385,782.04,41.00,highres
10.707581,66323968146,3.366028,-0.453643,-9.097290,-0.012698,0.029504,0.007605,0.212948,0.890997,2.775576,782.04,41.00,highres
10.718466,66323986614,3.306796,-0.448587,-8.961407,0.018617,0.028699,0.006635,0.212948,0.890997,2.775576,782.04,41.00,highres
10.740868,66324004572,3.292000,-0.476954,-9.064940,0.028113,0.003964,0.001364,0.212948,0.890997,2.775576,782.05,41.00,highres
10.764847,66324033047,3.320796,-0.364033,-9.213391,-0.034887,-0.034520,0.020681,0.212948,0.890997,2.775576,782.05,41.00,highres
10.784324,66324047666,3.419895,-0.450052,-9.238544,-0.017119,-0.009480,0.039316,0.212948,0.890997,2.775576,782.05,41.00,highres
10.799890,66324068051,3.458576,-0.591275,-9.295254,0.020552,0.039589,0.012240,0.212948,0.890997,2.775576,782.05,41.00,highres
10.832341,66324080368,3.410493,-0.542102,-9.193109,0.016512,0.052489,-0.009893,0.212948,0.890997,2.775576,782.05,41.00,highres
10.838303,66324112484,3.316927,-0.381775,-9.141583,-0.039692,-0.029436,0.009020,0.226478,0.887215,2.755486,782.05,41.00,highres
10.864834,66324132599,3.382999,-0.454629,-9.240445,-0.054742,-0.025920,0.027284,0.226478,0.887215,2.755486,782.05,41.00,highres
10.881749,66324150594,3.352231,-0.483548,-9.159686,-0.031912,0.024907,0.015711,0.226478,0.887215,2.755486,782.05,41.00,highres
10.898738,66324176272,3.336132,-0.409352,-8.951251,0.027925,0.030081,0.013057,0.226478,0.887215,2.755486,782.06,41.00,highres
10.917181,66324190610,3.355500,-0.463233,-9.032205,0.033400,-0.002273,0.015513,0.226478,0.887215,2.755486,782.06,41.00,highres
10.938530,66324207980,3.385317,-0.507864,-9.218026,0.017218,-0.026387,0.013264,0.226478,0.887215,2.755486,782.06,41.00,highres
10.965320,66324231475,3.421093,-0.521875,-9.334308,-0.034834,-0.010091,0.018241,0.226478,0.887215,2.755486,782.06,41.00,highres
10.981133,66324253145,3.423142,-0.492113,-9.195374,-0.042405,0.020517,0.009547,0.202961,0.881114,2.753056,782.06,41.00,highres
11.005869,66324276608,3.354594,-0.386612,-8.987842,-0.013526,0.023713,0.003682,0.202961,0.881114,2.753056,782.06,41.00,highres
11.021850,66324297521,3.324264,-0.415311,-8.986872,0.021665,-0.007578,0.001916,0.202961,0.881114,2.753056,782.06,41.00,highres
11.043086,66324311119,3.307063,-0.406251,-9.133688,0.000186,-0.031606,0.000575,0.202961,0.881114,2.753056,782.06,41.00,highres
11.069895,66324333292,3.329954,-0.391913,-9.227090,-0.030600,-0.028188,0.022871,0.202961,0.881114,2.753056,782.06,41.00,highres
11.081170,66324353556,3.336053,-0.417732,-9.197845,-0.005207,-0.003677,0.029542,0.202961,0.881114,2.753056,782.06,41.00,highres
11.101415,66324365325,3.322935,-0.432096,-9.209814,0.011978,0.010814,0.028292,0.202961,0.881114,2.753056,782.06,41.00,highres
11.117930,66324390457,3.356070,-0.434503,-9.137165,0.016173,0.032496,0.025085,0.212581,0.887230,2.754767,782.06,41.00,highres
11.137335,66324409315,3.383984,-0.451249,-9.184677,0.005800,0.016500,0.026089,0.212581,0.887230,2.754767,782.06,41.00,highres
11.164183,66324428283,3.461522,-0.537320,-9.224565,-0.035476,-0.006191,0.021758,0.212581,0.887230,2.754767,782.06,41.00,highres
11.185306,66324453948,3.387757,-0.435869,-9.144522,-0.053463,-0.011523,0.017819,0.212581,0.887230,2.754767,782.06,41.00,highres
11.198484,66324475659,3.337841,-0.436658,-9.086338,-0.009852,0.018643,0.019601,0.212581,0.887230,2.754767,782.06,41.00,highres
11.225811,66324493872,3.365465,-0.433420,-8.939563,0.031398,0.031078,0.015532,0.212581,0.887230,2.754767,782.06,41.00,highres
11.244407,66324511166,3.342087,-0.461224,-8.993547,0.037654,-0.005104,0.003886,0.212581,0.887230,2.754767,782.06,41.00,highres
11.266744,66324534364,3.380367,-0.435700,-9.222906,-0.035051,-0.060381,0.020941,0.200823,0.882424,2.767040,782.06,41.00,highres
11.281874,66324553820,3.405531,-0.464417,-9.327126,-0.028252,-0.035129,0.021337,0.200823,0.882424,2.767040,782.06,41.00,highres
11.281874,66324576537,3.354334,-0.470273,-9.275136,0.018913,0.029288,0.005889,0.200823,0.882424,2.767040,782.05,41.00,highres
11.333971,66324596002,3.272466,-0.446242,-9.136793,0.022801,0.023666,0.000861,0.200823,0.882424,2.767040,782.05,41.00,highres
11.337559,66324613783,3.257097,-0.371047,-9.159540,-0.030185,-0.017391,0.019277,0.200823,0.882424,2.767040,782.05,41.00,highres
11.366196,66324628269,3.392118,-0.391674,-9.197983,-0.041138,-0.018350,0.038559,0.200823,0.882424,2.767040,782.05,41.00,highres
11.382635,66324651880,3.421092,-0.530254,-9.237347,-0.001542,0.033280,0.024655,0.213780,0.887379,2.759211,782.05,41.00,highres
11.398837,66324673749,3.358077,-0.420983,-8.985372,0.003106,0.042225,0.013791,0.208592,0.883700,2.764113,782.05,41.00,highres
11.431351,66324693953,3.322851,-0.406546,-8.952865,0.015973,-0.014408,0.023223,0.208592,0.883700,2.764113,782.05,41.00,highres
11.437790,66324712055,3.319720,-0.488490,-9.170464,-0.009156,-0.045968,0.026913,0.208592,0.883700,2.764113,782.05,41.00,highres
11.464620,66324733691,3.396067,-0.431688,-9.236150,-0.017755,-0.020340,0.026707,0.208592,0.883700,2.764113,782.06,41.00,highres
11.482413,66324751154,3.371592,-0.477686,-9.217384,0.024725,0.011289,0.021296,0.208592,0.883700,2.764113,782.06,41.00,highres
11.498895,66324771095,3.347064,-0.535590,-9.293882,0.003249,0.021050,0.015915,0.208592,0.883700,2.764113,782.06,41.00,highres
11.534104,66324794555,3.312378,-0.435254,-9.135439,-0.038450,0.013595,0.021961,0.211086,0.882678,2.761239,782.06,41.00,highres
11.537890,66324808521,3.352376,-0.387106,-9.065065,-0.014323,0.012879,0.024834,0.220953,0.898012,2.760865,782.06,41.00,highres
11.565162,66324834649,3.409381,-0.511254,-9.156253,-0.006133,0.001117,0.016078,0.220953,0.898012,2.760865,782.06,41.00,highres
11.582030,66324847147,3.397111,-0.489460,-9.184137,-0.027491,-0.010409,0.007245,0.220953,0.898012,2.760865,782.06,41.00,highres
11.598908,66324876130,3.373211,-0.387805,-9.074548,-0.007361,-0.006750,0.018846,0.220953,0.898012,2.760865,782.06,41.00,highres
11.632120,66324897581,3.300213,-0.478915,-9.119525,0.031851,0.011711,0.023718,0.220953,0.898012,2.760865,782.05,41.00,highres
11.645741,66324914150,3.277372,-0.567690,-9.062236,-0.001131,-0.002059,0.013817,0.220953,0.898012,2.760865,782.05,41.00,highres
11.664249,66324934742,3.415060,-0.372081,-9.239663,0.017340,-0.033317,0.012350,0.208938,0.887287,2.766182,782.05,41.00,highres
11.689684,66324951925,3.440610,-0.515705,-9.466045,-0.015516,0.007264,0.023749,0.203140,0.883443,2.759491,782.05,41.00,highres
11.699725,66324978213,3.438648,-0.430061,-9.126090,-0.036606,0.016158,-0.003364,0.203140,0.883443,2.759491,782.05,41.00,highres
11.731235,66324991434,3.321982,-0.372996,-9.032774,-0.026140,-0.004454,0.006694,0.203140,0.883443,2.759491,782.05,41.00,highres
11.739565,66325011545,3.204427,-0.384214,-9.000331,0.000609,-0.017434,0.018241,0.203140,0.883443,2.759491,782.05,41.00,highres
11.768709,66325032591,3.234384,-0.484162,-9.141445,0.029701,0.005926,0.033282,0.203140,0.883443,2.759491,782.05,41.00,highres
11.782653,66325045296,3.385998,-0.486613,-9.203172,0.020156,0.013109,0.028931,0.203140,0.883443,2.759491,782.05,41.00,highres
11.799107,66325061730,3.459103,-0.399195,-9.199112,-0.005806,0.002419,0.024655,0.209107,0.895177,2.763528,782.05,41.00,highres
11.819499,66325081684,3.479358,-0.610076,-9.350605,-0.009125,-0.018097,0.033685,0.216678,0.890579,2.761343,782.05,41.00,highres
11.837842,66325105070,3.340890,-0.519481,-9.190661,-0.037721,0.007751,0.001499,0.216678,0.890579,2.761343,782.05,41.00,highres
11.867975,66325119336,3.250690,-0.378179,-9.002693,-0.034633,0.023020,-0.009638,0.216678,0.890579,2.761343,782.05,41.00,highres
11.882377,66325142361,3.267870,-0.426111,-9.044621,-0.002752,0.002421,0.013536,0.216678,0.890579,2.761343,782.05,41.00,highres
11.897737,66325169013,3.355364,-0.434327,-9.160572,-0.016620,-0.026044,0.022880,0.216678,0.890579,2.761343,782.05,41.00,highres
11.917775,66325184776,3.422083,-0.432131,-9.268641,0.008942,-0.007109,0.022633,0.216678,0.890579,2.761343,782.05,41.00,highres
11.938870,66325209165,3.386379,-0.462023,-9.175099,0.015575,0.026990,0.014316,0.211317,0.884705,2.759680,782.05,41.00,highres
11.964807,66325224567,3.320540,-0.442870,-9.117641,-0.000308,0.010971,0.009078,0.219876,0.877025,2.775409,782.05,41.00,highres
11.982779,66325248528,3.303990,-0.418728,-9.160697,-0.034211,-0.023395,0.017161,0.219876,0.877025,2.775409,782.05,41.00,highres
11.999668,66325267756,3.330817,-0.407737,-9.237844,-0.034211,-0.023950,0.019506,0.219876,0.877025,2.775409,782.05,41.00,highres
12.031595,66325284717,3.371512,-0.441134,-9.212362,-0.005393,0.005229,0.026839,0.219876,0.877025,2.775409,782.05,41.00,highres
12.037188,66325306833,3.349004,-0.537902,-9.092109,0.029849,0.030763,0.018933,0.219876,0.877025,2.775409,782.05,41.00,highres
12.065525,66325328927,3.334509,-0.513401,-9.151339,0.031719,0.015739,0.006361,0.219876,0.877025,2.775409,782.05,41.00,highres
12.082239,66325347721,3.383403,-0.493418,-9.257660,-0.017803,-0.004333,0.012165,0.213390,0.884956,2.759720,782.05,41.00,highres
12.099535,66325369788,3.448386,-0.384689,-9.154985,-0.055591,-0.008882,0.017630,0.218398,0.880327,2.759052,782.04,40.70,highres
12.132521,66325392465,3.343285,-0.427308,-9.036243,0.014509,0.014746,0.008081,0.218398,0.880327,2.759052,782.04,40.70,highres
12.137949,66325407919,3.250126,-0.438808,-9.019013,0.030235,0.008222,-0.001918,0.218398,0.880327,2.759052,782.04,40.70,highres
12.166126,66325431750,3.233474,-0.408024,-9.121386,-0.010450,-0.035813,0.013838,0.218398,0.880327,2.759052,782.04,40.70,highres
12.186360,66325457203,3.323993,-0.412924,-9.353222,-0.005377,-0.012745,0.033363,0.218398,0.880327,2.759052,782.04,40.70,highres
12.197713,66325471708,3.381081,-0.480157,-9.418004,-0.006874,0.025172,0.033207,0.218398,0.880327,2.759052,782.04,40.70,highres
12.222495,66325492471,3.432415,-0.524516,-9.216988,-0.010144,0.052484,0.025634,0.209510,0.881905,2.762818,782.04,40.70,highres
12.250119,66325509038,3.381077,-0.485264,-9.058083,0.009869,0.041247,0.010980,0.206350,0.872500,2.755315,782.04,40.70,highres
12.265684,66325531688,3.330084,-0.489994,-9.041098,-0.003756,-0.000121,0.007856,0.206350,0.872500,2.755315,782.04,40.70,highres
12.281362,66325552127,3.322852,-0.434848,-9.126078,-0.045473,-0.032130,0.018311,0.206350,0.872500,2.755315,782.04,40.70,highres
12.281362,66325575305,3.400462,-0.422379,-9.113977,-0.030687,-0.010138,0.026972,0.206350,0.872500,2.755315,782.04,40.70,highres
12.321815,66325593183,3.381546,-0.435754,-9.076550,0.021031,0.013127,0.019657,0.206350,0.872500,2.755315,782.04,40.70,highres
12.338932,66325609351,3.304455,-0.474953,-9.094769,0.039378,0.004517,0.009616,0.206350,0.872500,2.755315,782.05,40.70,highres
12.366401,66325638430,3.276358,-0.419568,-9.188674,0.002595,-0.031312,0.024158,0.212222,0.891534,2.760310,782.05,40.70,highres
12.381562,66325654562,3.342146,-0.476256,-9.407312,-0.022235,-0.032040,0.034389,0.208768,0.886911,2.763407,782.05,40.70,highres
12.398014,66325676585,3.410359,-0.503648,-9.361336,-0.042321,0.014171,0.028971,0.208768,0.886911,2.763407,782.05,40.70,highres
12.419967,66325691585,3.412152,-0.460751,-9.215281,-0.015609,0.040063,0.020179,0.208768,0.886911,2.763407,782.04,40.70,highres
12.437500,66325707210,3.363734,-0.486236,-9.098134,-0.005970,0.041445,0.012720,0.208768,0.886911,2.763407,782.04,40.70,highres
12.465508,66325727361,3.352861,-0.454840,-9.002726,0.002011,0.027239,0.009452,0.208768,0.886911,2.763407,782.04,40.70,highres
12.482923,66325748044,3.343069,-0.429231,-9.006006,0.006106,0.001808,0.009383,0.208768,0.886911,2.763407,782.04,40.70,highres
12.504205,66325767868,3.335940,-0.409178,-9.133579,-0.016801,-0.033317,0.019768,0.208768,0.886911,2.763407,782.05,40.70,highres
12.518974,66325787209,3.362915,-0.424516,-9.193695,-0.029739,-0.033476,0.029493,0.217728,0.897174,2.748649,782.05,40.70,highres
12.546728,66325811137,3.358406,-0.438106,-9.185519,0.009784,-0.001870,0.025266,0.217728,0.897174,2.748649,782.05,40.70,highres
12.565443,66325827439,3.346863,-0.530657,-9.258503,0.047963,0.028673,0.011827,0.217728,0.897174,2.748649,782.05,40.70,highres
12.583591,66325849732,3.326821,-0.496441,-9.291214,-0.005899,0.018547,0.013006,0.217728,0.897174,2.748649,782.06,40.70,highres
12.610067,66325867415,3.338610,-0.440248,-9.232448,-0.051878,-0.004701,0.016602,0.217728,0.897174,2.748649,782.06,40.70,highres
12.631032,66325887995,3.391475,-0.417153,-9.131252,-0.052734,-0.006270,0.031927,0.217728,0.897174,2.748649,782.06,40.70,highres
12.637860,66325909900,3.356452,-0.457234,-8.996738,0.005813,0.019815,0.019463,0.210675,0.884664,2.760059,782.06,40.70,highres
12.664473,66325925605,3.351664,-0.434490,-8.994345,0.021335,0.019620,0.012558,0.213469,0.899767,2.779006,782.06,40.70,highres
12.686908,66325947606,3.311308,-0.436031,-9.040936,0.004223,-0.009678,0.014182,0.213469,0.899767,2.779006,782.06,40.70,highres
12.697898,66325973616,3.418615,-0.537131,-9.290798,0.003916,-0.025531,0.018134,0.213469,0.899767,2.779006,782.06,40.70,highres
12.718028,66325993260,3.352861,-0.487160,-9.373811,-0.030839,-0.012561,0.007550,0.213469,0.899767,2.779006,782.06,40.70,highres
12.737982,66326016523,3.369619,-0.399183,-9.272546,-0.012323,0.019208,0.018268,0.213469,0.899767,2.779006,782.05,40.70,highres
12.765320,66326033500,3.309033,-0.446470,-9.149854,0.008444,0.044204,0.017348,0.213469,0.899767,2.779006,782.05,40.70,highres
12.781926,66326047532,3.284353,-0.434352,-9.057974,-0.009992,0.034930,0.017268,0.214994,0.887649,2.764720,782.05,40.70,highres
12.798065,66326073197,3.365775,-0.438289,-9.007857,-0.018528,-0.017611,0.025319,0.208375,0.881434,2.752105,782.05,40.70,highres
12.834282,66326096318,3.430669,-0.459628,-9.154751,-0.011291,-0.012561,0.023739,0.208375,0.881434,2.752105,782.04,40.70,highres
12.838544,66326109809,3.454610,-0.512854,-9.145452,0.009402,0.003821,0.017277,0.208375,0.881434,2.752105,782.04,40.70,highres
12.866194,66326130583,3.370817,-0.502722,-9.136794,0.026467,0.007249,0.000787,0.208375,0.881434,2.752105,782.04,40.70,highres
12.884624,66326150090,3.290073,-0.486960,-9.209044,0.003122,-0.014081,0.005645,0.208375,0.881434,2.752105,782.04,40.70,highres
12.899901,66326173774,3.304067,-0.448097,-9.300405,-0.050079,-0.019672,0.018558,0.208375,0.881434,2.752105,782.05,40.70,highres
12.926835,66326192533,3.392549,-0.416349,-9.227037,-0.041446,0.010207,0.020273,0.211594,0.893875,2.761840,782.05,40.70,highres
12.937967,66326213844,3.378563,-0.475755,-9.111868,0.010479,0.030197,0.006550,0.203839,0.881861,2.761699,782.05,40.70,highres
12.967311,66326233419,3.247839,-0.406991,-9.069508,0.005306,0.015338,0.000147,0.203839,0.881861,2.761699,782.05,40.70,highres
12.981317,66326252970,3.280458,-0.374643,-9.040449,-0.010069,-0.010147,0.026823,0.203839,0.881861,2.761699,782.05,40.70,highres
12.998254,66326273642,3.406634,-0.477297,-9.197941,-0.008591,-0.012903,0.036127,0.203839,0.881861,2.761699,782.05,40.70,highres
13.032085,66326292628,3.456127,-0.517087,-9.245308,-0.020953,0.006431,0.017187,0.203839,0.881861,2.761699,782.05,40.70,highres
13.038204,66326315036,3.417178,-0.438609,-9.120078,0.004798,0.014600,0.007716,0.203839,0.881861,2.761699,782.05,40.70,highres
13.065267,66326334275,3.328958,-0.454061,-9.083879,0.029294,0.013020,0.003542,0.214950,0.889106,2.765049,782.06,40.70,highres
13.082321,66326355486,3.254323,-0.485088,-9.195243,-0.014107,-0.021254,0.005941,0.198794,0.887936,2.763624,782.06,40.70,highres
13.098665,66326372580,3.372167,-0.428189,-9.297200,-0.062398,-0.025602,0.021795,0.198794,0.887936,2.763624,782.06,40.70,highres
13.134221,66326388072,3.442116,-0.412270,-9.248629,-0.028154,0.001531,0.020458,0.198794,0.887936,2.763624,782.06,40.70,highres
13.139747,66326403737,3.391801,-0.450588,-9.203063,0.016198,0.039363,0.016408,0.198794,0.887936,2.763624,782.05,40.70,highres
13.166909,66326431808,3.275307,-0.410430,-8.918856,0.003247,0.034777,0.017325,0.198794,0.887936,2.763624,782.05,40.70,highres
13.182351,66326452857,3.376802,-0.509904,-9.157146,0.000621,-0.012561,0.019768,0.198794,0.887936,2.763624,782.05,40.70,highres
13.204792,66326468050,3.442018,-0.450754,-9.294777,-0.030421,-0.020871,0.011698,0.212856,0.890833,2.764424,782.05,40.70,highres
13.217663,66326488927,3.474230,-0.414303,-9.267993,-0.027479,0.010347,0.016103,0.219417,0.888863,2.762119,782.05,40.70,highres
13.251096,66326507822,3.375057,-0.524286,-9.078430,-0.018276,0.021575,0.010621,0.219417,0.888863,2.762119,782.05,40.70,highres
13.265362,66326528437,3.278257,-0.377115,-9.073957,-0.001823,-0.006757,0.005718,0.219417,0.888863,2.762119,782.05,40.70,highres
13.289114,66326548159,3.277418,-0.506937,-9.125986,0.003675,0.002100,0.014881,0.219417,0.888863,2.762119,782.05,40.70,highres
13.289114,66326568466,3.405531,-0.331544,-9.134401,-0.011286,0.004393,0.007997,0.219417,0.888863,2.762119,782.05,40.70,highres
13.332288,66326590989,3.440246,-0.442870,-9.159539,0.006569,0.002791,0.028545,0.219417,0.888863,2.762119,782.05,40.70,highres
13.338492,66326607131,3.387208,-0.485191,-9.169115,0.009372,-0.001565,0.013907,0.213249,0.883511,2.759581,782.05,40.70,highres
13.364627,66326611035,3.370966,-0.471805,-9.173491,0.007217,-0.003521,0.009505,0.213249,0.883511,2.759581,782.05,40.70,highres
13.383531,66326647942,3.307059,-0.387963,-9.144859,-0.009451,-0.004822,0.013576,0.208123,0.902840,2.763329,782.05,40.70,highres
13.399675,66326667961,3.344352,-0.457493,-9.226976,0.004982,0.002045,0.029867,0.208123,0.902840,2.763329,782.05,40.70,highres
13.431765,66326689367,3.421832,-0.456899,-9.068629,-0.020152,0.017995,0.031374,0.208123,0.902840,2.763329,782.05,40.70,highres
13.449416,66326708886,3.456486,-0.510737,-9.028299,0.012227,0.011263,0.028015,0.208123,0.902840,2.763329,782.05,40.70,highres
13.464815,66326728191,3.429717,-0.587631,-9.169196,0.009478,-0.004619,0.005412,0.208123,0.902840,2.763329,782.06,40.70,highres
13.484905,66326748643,3.410991,-0.448382,-9.141543,-0.025647,-0.027527,-0.008637,0.216022,0.884487,2.759326,782.06,40.70,highres
13.498296,66326776319,3.323323,-0.386381,-9.184077,-0.015760,-0.038451,0.000450,0.215331,0.880099,2.763576,782.06,40.70,highres
13.531601,66326793236,3.304979,-0.446925,-9.290729,-0.004863,-0.000916,0.019157,0.215331,0.880099,2.763576,782.06,40.70,highres
13.538186,66326814272,3.304979,-0.435687,-9.137993,-0.008225,0.030186,0.010910,0.215331,0.880099,2.763576,782.06,40.70,highres
13.564884,66326831850,3.350845,-0.351577,-9.064879,0.005809,0.012214,0.010291,0.215331,0.880099,2.763576,782.06,40.70,highres
13.581535,66326851029,3.348096,-0.403461,-9.211246,-0.007380,-0.009825,0.017791,0.215331,0.880099,2.763576,782.06,40.70,highres
13.603932,66326878738,3.309321,-0.353816,-9.183568,-0.034714,-0.007915,0.028859,0.215331,0.880099,2.763576,782.06,40.70,highres
13.633090,66326891314,3.319530,-0.409849,-9.152934,-0.009869,0.002530,0.037168,0.215544,0.886144,2.762295,782.05,40.70,highres
13.645427,66326914101,3.388007,-0.495303,-9.130761,0.010332,0.023991,0.034612,0.216148,0.894509,2.763978,782.05,40.70,highres
13.668153,66326934596,3.405531,-0.545816,-9.099687,0.017457,0.018503,0.016942,0.216148,0.894509,2.763978,782.05,40.70,highres
13.690394,66326954222,3.419551,-0.516661,-9.114344,-0.001319,-0.007492,0.011176,0.216148,0.894509,2.763978,782.05,40.70,highres
13.698174,66326971698,3.390502,-0.502746,-9.198864,-0.032074,-0.033121,0.006981,0.216148,0.894509,2.763978,782.05,40.70,highres
13.731700,66326991312,3.398446,-0.416153,-9.164375,-0.027154,-0.019516,0.011827,0.216148,0.894509,2.763978,782.05,40.70,highres
13.738985,66327014248,3.343310,-0.411096,-9.121258,0.020433,0.018852,0.008772,0.216148,0.894509,2.763978,782.05,40.70,highres
13.769359,66327033774,3.291833,-0.421451,-8.992230,0.019377,-0.001513,0.008633,0.211242,0.887469,2.764460,782.05,40.70,highres
13.782690,66327053767,3.237549,-0.351091,-9.138296,0.004909,-0.050143,0.015186,0.218788,0.886686,2.763212,782.06,40.70,highres
13.810369,66327074672,3.263878,-0.400560,-9.353413,-0.009346,-0.034575,0.036055,0.218788,0.886686,2.763212,782.06,40.70,highres
13.831137,66327091624,3.310498,-0.437118,-9.419055,0.000241,0.022193,0.034734,0.218788,0.886686,2.763212,782.06,40.70,highres
13.837816,66327113617,3.408883,-0.472225,-9.251949,-0.007031,0.042187,0.035185,0.218788,0.886686,2.763212,782.06,40.70,highres
13.865762,66327134268,3.470426,-0.579079,-9.117279,-0.017550,0.015800,0.022229,0.218788,0.886686,2.763212,782.06,40.70,highres
13.882943,66327153971,3.419147,-0.534489,-9.096395,-0.003032,0.005423,-0.004598,0.218788,0.886686,2.763212,782.06,40.70,highres
13.898800,66327173878,3.305277,-0.455138,-9.065356,-0.039321,0.011833,0.002801,0.207047,0.890773,2.766068,782.06,40.70,highres
13.926197,66327191783,3.307570,-0.375460,-8.895331,-0.028296,0.007283,0.017297,0.213562,0.902241,2.772705,782.06,40.70,highres
13.947937,66327206623,3.363634,-0.420126,-8.867459,0.032703,-0.008909,0.024655,0.213562,0.902241,2.772705,782.07,40.70,highres
13.970543,66327236221,3.354988,-0.531980,-9.191349,0.041613,-0.051755,0.000524,0.213562,0.902241,2.772705,782.07,40.70,highres
13.984863,66327253632,3.337243,-0.447557,-9.421546,-0.011944,-0.055852,0.002897,0.213562,0.902241,2.772705,782.07,40.70,highres
14.006378,66327273629,3.334905,-0.392643,-9.417627,-0.042376,-0.006166,0.019914,0.213562,0.902241,2.772705,782.07,40.70,highres
14.035285,66327296808,3.294205,-0.421323,-9.228968,-0.008225,0.042709,0.017630,0.213562,0.902241,2.772705,782.07,40.70,highres
14.041020,66327314009,3.258294,-0.444067,-9.100883,-0.000284,0.037211,0.017935,0.205653,0.886179,2.765261,782.07,40.70,highres
14.065879,66327334542,3.252120,-0.452367,-9.064816,-0.022781,0.009349,0.023991,0.205139,0.890667,2.765789,782.07,40.70,highres
14.081860,66327348903,3.361152,-0.432561,-9.086305,-0.019137,-0.002682,0.036922,0.205139,0.890667,2.765789,782.07,40.70,highres
14.099831,66327372095,3.436264,-0.498057,-9.173171,-0.007820,0.009647,0.031368,0.205139,0.890667,2.765789,782.06,41.00,highres
14.118367,66327395077,3.445838,-0.489196,-9.049496,-0.000469,0.014614,0.016238,0.205139,0.890667,2.765789,782.06,41.00,highres
14.137273,66327404669,3.422398,-0.505416,-9.010722,0.016021,0.006762,0.010088,0.205139,0.890667,2.765789,782.06,41.00,highres
14.166024,66327424896,3.331297,-0.506903,-9.073369,0.022257,-0.020918,-0.007853,0.205139,0.890667,2.765789,782.06,41.00,highres
14.182083,66327449805,3.266329,-0.390030,-9.249201,-0.029823,-0.054360,0.009092,0.216146,0.883650,2.759712,782.06,41.00,highres
14.200178,66327472181,3.302584,-0.429696,-9.349066,-0.002220,-0.016140,0.025469,0.220937,0.883603,2.764307,782.06,41.00,highres
14.233753,66327489977,3.316949,-0.484859,-9.337893,0.010360,0.035590,0.022493,0.220937,0.883603,2.764307,782.06,41.00,highres
14.240792,66327509366,3.341086,-0.510415,-9.104298,0.014072,0.053399,0.013659,0.220937,0.883603,2.764307,782.06,41.00,highres
14.267367,66327529043,3.318146,-0.432096,-9.082927,-0.028209,0.001558,0.004312,0.220937,0.883603,2.764307,782.06,41.00,highres
14.283869,66327547508,3.369266,-0.369468,-9.066169,-0.056665,-0.032083,0.025125,0.220937,0.883603,2.764307,782.06,41.00,highres
14.290911,66327567537,3.343910,-0.449373,-9.133462,0.003382,-0.009214,0.030763,0.220937,0.883603,2.764307,782.06,41.00,highres
14.333430,66327587298,3.383427,-0.575001,-9.109324,0.029649,0.026521,0.022517,0.210754,0.888106,2.761903,782.06,41.00,highres
14.337969,66327601677,3.361863,-0.546634,-9.173952,0.023235,0.009111,0.008161,0.210875,0.882145,2.771622,782.06,41.00,highres
14.366093,66327624518,3.388018,-0.406203,-9.256316,-0.022384,-0.027910,0.001452,0.210875,0.882145,2.771622,782.06,41.00,highres
14.383941,66327648116,3.322462,-0.451639,-9.294290,-0.008366,-0.018911,0.014694,0.210875,0.882145,2.771622,782.06,41.00,highres
14.410420,66327662757,3.260933,-0.400021,-9.150453,-0.012806,0.012777,0.013964,0.210875,0.882145,2.771622,782.06,41.00,highres
14.419758,66327679442,3.266293,-0.399548,-9.059879,0.002159,0.033501,0.018938,0.210875,0.882145,2.771622,782.06,41.00,highres
14.450059,66327707044,3.370817,-0.484766,-9.044621,0.008073,0.020522,0.033383,0.210875,0.882145,2.771622,782.06,41.00,highres
14.465771,66327721988,3.442937,-0.521501,-9.151695,-0.002333,-0.006277,0.024081,0.213977,0.891141,2.757060,782.06,41.00,highres
14.484282,66327755823,3.391209,-0.497955,-9.260317,-0.024049,-0.018325,0.006150,0.204317,0.890703,2.758760,782.06,41.00,highres
14.501434,66327774565,3.279161,-0.414047,-9.173152,-0.011878,0.009746,0.015671,0.204317,0.890703,2.758760,782.05,41.00,highres
14.517294,66327789071,3.301836,-0.455064,-9.035570,0.004087,0.013412,0.028588,0.204317,0.890703,2.758760,782.05,41.00,highres
14.538383,66327814421,3.320702,-0.506151,-9.138244,0.001696,-0.015947,0.021766,0.204317,0.890703,2.758760,782.05,41.00,highres
14.566199,66327832141,3.348396,-0.479760,-9.222423,-0.011991,-0.015726,0.018158,0.204317,0.890703,2.758760,782.05,41.00,highres
14.583062,66327851859,3.360043,-0.482372,-9.275653,-0.006687,0.007877,0.014575,0.204317,0.890703,2.758760,782.05,41.00,highres
14.599644,66327874034,3.381912,-0.484865,-9.192287,-0.012351,0.008848,0.008494,0.213500,0.889077,2.760521,782.05,41.00,highres
14.631019,66327894010,3.330732,-0.392762,-9.127867,-0.004785,0.005845,0.010873,0.214783,0.871374,2.756165,782.05,41.00,highres
14.638165,66327915189,3.317649,-0.477878,-9.159539,-0.005760,0.014547,0.018053,0.214783,0.871374,2.756165,782.05,41.00,highres
14.665162,66327929223,3.299554,-0.550095,-9.099838,-0.031071,0.005303,0.016875,0.214783,0.871374,2.756165,782.05,41.00,highres
14.682618,66327952343,3.332933,-0.392663,-9.050046,-0.021670,-0.021912,0.015150,0.214783,0.871374,2.756165,782.05,41.00,highres
14.700934,66327974715,3.334341,-0.455542,-9.150031,0.025472,-0.004522,0.019606,0.214783,0.871374,2.756165,782.05,41.00,highres
14.717622,66327991959,3.332143,-0.474799,-9.158711,0.028643,0.006550,0.013042,0.214783,0.871374,2.756165,782.05,41.00,highres
14.738772,66328011842,3.356452,-0.526663,-9.216997,0.005680,-0.015563,0.013113,0.208938,0.888165,2.759437,782.05,41.00,highres
14.765433,66328032671,3.325329,-0.511101,-9.322337,-0.033565,-0.012892,0.013048,0.205477,0.883553,2.761472,782.05,41.00,highres
14.782918,66328052927,3.303856,-0.411111,-9.212173,-0.021663,0.018519,0.019195,0.205477,0.883553,2.761472,782.05,41.00,highres
14.800000,66328074267,3.326526,-0.472796,-9.080533,0.008279,0.037199,0.022516,0.205477,0.883553,2.761472,782.05,41.00,highres
14.832152,66328097433,3.383471,-0.467879,-9.050329,0.003499,0.005647,0.003459,0.205477,0.883553,2.761472,782.05,41.00,highres
14.839555,66328109734,3.363635,-0.439279,-9.063775,-0.018417,-0.023434,0.003980,0.205477,0.883553,2.761472,782.05,41.00,highres
14.868877,66328134993,3.344481,-0.458431,-9.220588,-0.032343,-0.037327,0.017629,0.205477,0.883553,2.761472,782.05,41.00,highres
14.883023,66328154499,3.275053,-0.420126,-9.167918,-0.007603,0.000547,0.013048,0.215292,0.886944,2.758261,782.05,41.00,highres
14.900995,66328171160,3.217289,-0.372115,-9.146559,0.033226,0.021685,0.021969,0.207942,0.885201,2.769070,782.06,41.00,highres
14.933371,66328194409,3.257939,-0.490056,-9.288818,-0.001009,0.018526,0.035039,0.207942,0.885201,2.769070,782.06,41.00,highres
14.937071,66328218521,3.461502,-0.473703,-9.207613,-0.034488,-0.001542,0.038423,0.207942,0.885201,2.769070,782.06,41.00,highres
14.968473,66328232481,3.446765,-0.508860,-9.260523,-0.001449,0.004563,0.022451,0.207942,0.885201,2.769070,782.06,41.00,highres
14.984627,66328252746,3.360399,-0.515339,-9.230864,-0.017377,0.033533,0.015797,0.207942,0.885201,2.769070,782.06,41.00,highres
14.997877,66328274661,3.322935,-0.511101,-9.049410,-0.038589,0.030626,0.008821,0.207942,0.885201,2.769070,782.06,41.00,highres
15.018844,66328295084,3.343876,-0.425225,-8.977494,-0.028108,0.006533,0.008738,0.216064,0.893626,2.759441,782.06,41.00,highres
15.037485,66328315285,3.364710,-0.433325,-9.024183,0.011028,-0.014419,0.022516,0.204941,0.887492,2.763311,782.06,41.00,highres
15.066608,66328329867,3.326661,-0.496914,-9.097488,0.018536,-0.019947,0.019423,0.204941,0.887492,2.763311,782.06,41.00,highres
15.082264,66328342760,3.285048,-0.462083,-9.159898,0.016444,-0.025832,0.010272,0.204941,0.887492,2.763311,782.06,41.00,highres
15.099209,66328361599,3.312238,-0.428415,-9.158600,-0.003938,-0.029080,0.023127,0.204941,0.887492,2.763311,782.06,41.00,highres
15.133098,66328388906,3.313719,-0.495963,-9.434733,0.020262,-0.023526,0.014035,0.204941,0.887492,2.763311,782.06,41.00,highres
15.138430,66328406341,3.320541,-0.428505,-9.370219,-0.034896,0.008579,0.016569,0.204941,0.887492,2.763311,782.06,41.00,highres
15.165005,66328427898,3.323278,-0.411781,-9.103830,-0.021075,0.043067,0.026415,0.213535,0.889749,2.760142,782.06,41.00,highres
15.182989,66328446858,3.323582,-0.476542,-9.038242,0.024525,0.048582,0.023793,0.207568,0.893251,2.761468,782.06,41.00,highres
15.202310,66328465925,3.269068,-0.535042,-9.160735,-0.001650,0.014145,0.013353,0.207568,0.893251,2.761468,782.06,41.00,highres
15.232057,66328492301,3.407390,-0.377022,-9.075052,-0.044667,-0.012939,0.041101,0.207568,0.893251,2.761468,782.05,41.00,highres
15.237691,66328509949,3.449774,-0.500432,-9.091249,0.008799,0.007286,0.036288,0.207568,0.893251,2.761468,782.05,41.00,highres
15.270022,66328533241,3.371107,-0.550749,-9.037004,0.022024,0.006468,0.008983,0.207568,0.893251,2.761468,782.05,41.00,highres
15.283534,66328557707,3.334218,-0.547877,-9.148475,0.024757,-0.034975,0.000640,0.207568,0.893251,2.761468,782.05,41.00,highres
15.296992,66328568526,3.306320,-0.552418,-9.356296,0.006867,-0.039928,-0.002233,0.215474,0.887740,2.759322,782.05,41.00,highres
15.296992,66328592604,3.357649,-0.439278,-9.406130,-0.044866,0.006350,0.010604,0.214073,0.899220,2.760539,782.05,41.00,highres
15.349363,66328612419,3.337447,-0.385690,-9.189283,-0.013374,0.044976,0.013244,0.214073,0.899220,2.760539,782.05,41.00,highres
15.368706,66328634158,3.325503,-0.451243,-8.997763,0.002650,0.025200,0.016451,0.214073,0.899220,2.760539,782.05,41.00,highres
15.385686,66328655625,3.281360,-0.455391,-9.097261,-0.037464,-0.011761,0.011707,0.214073,0.899220,2.760539,782.06,41.00,highres
15.400558,66328674785,3.357987,-0.428733,-9.083009,-0.014424,-0.007032,0.017958,0.214073,0.899220,2.760539,782.06,41.00,highres
15.431905,66328697519,3.328113,-0.449643,-9.188262,0.008990,0.012765,0.012031,0.214073,0.899220,2.760539,782.06,41.00,highres
15.438518,66328712514,3.335143,-0.392594,-9.158867,0.008034,0.007511,0.025020,0.211940,0.890682,2.763517,782.06,41.00,highres
15.464866,66328732908,3.353759,-0.525002,-9.144876,0.013506,0.006367,0.032706,0.212541,0.886420,2.755541,782.05,41.00,highres
15.481060,66328748156,3.410605,-0.591545,-9.271338,0.008279,0.013680,0.017935,0.212541,0.886420,2.755541,782.05,41.00,highres
15.508939,66328770402,3.411516,-0.466811,-9.137992,-0.038746,0.011859,0.005171,0.212541,0.886420,2.755541,782.05,41.00,highres
15.517478,66328787632,3.407926,-0.394988,-9.102080,-0.023775,0.000489,0.004559,0.212541,0.886420,2.755541,782.05,41.00,highres
15.546508,66328806213,3.292842,-0.450664,-9.076443,-0.013089,-0.003132,0.011520,0.212541,0.886420,2.755541,782.05,41.00,highres
15.566962,66328833154,3.261885,-0.428505,-9.003922,-0.007173,-0.000799,0.022793,0.212541,0.886420,2.755541,782.05,41.00,highres
15.587723,66328847015,3.316555,-0.459376,-9.075280,0.010735,-0.008629,0.020683,0.215410,0.893167,2.761400,782.05,41.00,highres
15.598587,66328867681,3.406729,-0.474754,-9.323112,0.020203,-0.016571,0.018240,0.202930,0.893850,2.755937,782.05,41.00,highres
15.630505,66328896130,3.405531,-0.458431,-9.288819,-0.003809,0.006997,0.016102,0.202930,0.893850,2.755937,782.05,41.00,highres
15.637752,66328915190,3.376136,-0.499944,-9.166586,-0.014059,0.008565,0.015258,0.202930,0.893850,2.755937,782.05,41.00,highres
15.667121,66328931069,3.332014,-0.519020,-9.129225,-0.019718,0.000732,0.008557,0.202930,0.893850,2.755937,782.05,41.00,highres
15.682406,66328955435,3.281795,-0.452543,-9.195597,-0.022897,-0.000336,0.003591,0.202930,0.893850,2.755937,782.05,41.00,highres
15.699646,66328977380,3.357888,-0.373201,-9.108784,-0.016875,0.019165,0.023616,0.202930,0.893850,2.755937,782.04,41.00,highres
15.734113,66328995445,3.346539,-0.440286,-9.114230,0.001344,0.004540,0.021815,0.213589,0.892940,2.760520,782.04,41.00,highres
15.738322,66329012847,3.345172,-0.399359,-9.056931,-0.009655,-0.006205,0.024062,0.214686,0.896028,2.763498,782.04,41.00,highres
15.767013,66329030595,3.372953,-0.459090,-9.144893,0.021573,0.000244,0.024547,0.214686,0.896028,2.763498,782.04,41.00,highres
15.781568,66329054218,3.379196,-0.567363,-9.285229,-0.000872,0.017332,0.006328,0.214686,0.896028,2.763498,782.04,41.00,highres
15.798970,66329073100,3.394309,-0.458393,-9.182693,-0.035404,-0.000114,0.003340,0.214686,0.896028,2.763498,782.04,41.00,highres
15.832614,66329096995,3.363453,-0.452471,-9.208694,-0.018950,-0.009546,0.008986,0.214686,0.896028,2.763498,782.04,41.00,highres
15.838915,66329113428,3.292825,-0.463079,-9.192605,-0.029554,0.006706,0.011506,0.214686,0.896028,2.763498,782.04,41.00,highres
15.867617,66329137054,3.297430,-0.438545,-8.983476,0.000801,0.014677,0.015397,0.209690,0.885110,2.762643,782.04,41.00,highres
15.882072,66329153526,3.317557,-0.429444,-9.033019,0.013404,0.005107,0.015796,0.214046,0.884829,2.762389,782.04,41.00,highres
15.899759,66329167518,3.351923,-0.443460,-9.093682,0.010735,-0.007408,0.016102,0.214046,0.884829,2.762389,782.04,41.00,highres
15.932510,66329189637,3.395323,-0.429830,-9.168798,-0.002704,-0.016876,0.020378,0.214046,0.884829,2.762389,782.04,41.00,highres
15.938512,66329210515,3.362795,-0.454312,-9.175240,-0.004393,-0.022607,0.013838,0.214046,0.884829,2.762389,782.04,41.00,highres
15.966226,66329227322,3.333271,-0.458302,-9.150156,-0.010951,-0.023290,0.012131,0.214046,0.884829,2.762389,782.04,41.00,highres
15.985226,66329244021,3.282974,-0.454840,-9.188214,0.008597,-0.018709,0.008161,0.214046,0.884829,2.762389,782.04,41.00,highres
15.998433,66329268834,3.235146,-0.397382,-9.259692,0.001266,0.000228,0.015796,0.210310,0.887448,2.759166,782.04,41.00,highres
16.031830,66329288392,3.357731,-0.485396,-9.195977,-0.009729,0.013056,0.038398,0.207389,0.890922,2.755033,782.05,41.00,highres
16.038614,66329302737,3.363718,-0.465141,-9.116864,-0.004232,0.016721,0.029235,0.207389,0.890922,2.755033,782.05,41.00,highres
16.064635,66329324703,3.367226,-0.451249,-9.078139,0.003099,0.002671,0.024043,0.207389,0.890922,2.755033,782.05,41.00,highres
16.081298,66329338723,3.355256,-0.479978,-9.090110,0.007680,-0.012600,0.024348,0.207389,0.890922,2.755033,782.05,41.00,highres
16.098213,66329361045,3.338941,-0.530621,-9.240300,0.008124,-0.019328,0.013265,0.207389,0.890922,2.755033,782.05,41.70,highres
16.118075,66329378222,3.310019,-0.408944,-9.051556,-0.021244,-0.011852,0.009902,0.207389,0.890922,2.755033,782.05,41.70,highres
16.144287,66329402835,3.306263,-0.520143,-9.394190,-0.003877,-0.023199,0.017699,0.215925,0.893490,2.759062,782.05,41.70,highres
16.166151,66329423695,3.407925,-0.603274,-9.153553,-0.024514,-0.000233,0.035292,0.208272,0.891659,2.764472,782.05,41.70,highres
16.182156,66329443634,3.444998,-0.486525,-8.998498,0.011651,0.021914,0.007855,0.208272,0.891659,2.764472,782.06,41.70,highres
16.200494,66329473814,3.306068,-0.516198,-9.305491,0.001819,-0.041139,-0.001491,0.208272,0.891659,2.764472,782.06,41.70,highres
16.231688,66329497171,3.302124,-0.501711,-9.281332,-0.077518,-0.033474,0.015002,0.208272,0.891659,2.764472,782.06,41.70,highres
16.238506,66329511014,3.303422,-0.413480,-9.188379,-0.019485,0.004445,0.006145,0.208272,0.891659,2.764472,782.06,41.70,highres
16.269418,66329534455,3.240452,-0.417971,-9.220865,0.033445,0.037786,0.013589,0.208272,0.891659,2.764472,782.06,41.70,highres
16.282230,66329555407,3.318122,-0.510347,-9.120993,-0.027018,0.020340,0.018839,0.212724,0.891880,2.755981,782.06,41.70,highres
16.299698,66329571778,3.353270,-0.415519,-9.008558,-0.013766,0.002246,0.013170,0.207083,0.897982,2.764126,782.06,41.70,highres
16.299698,66329591547,3.270499,-0.380232,-9.134893,0.005376,-0.019545,0.025939,0.207083,0.897982,2.764126,782.06,41.70,highres
16.340046,66329614467,3.270492,-0.480432,-9.156174,-0.033726,-0.019412,0.041147,0.207083,0.897982,2.764126,782.06,41.70,highres
16.367658,66329631301,3.348945,-0.475951,-9.116148,0.007446,-0.005250,0.029944,0.207083,0.897982,2.764126,782.06,41.70,highres
16.382299,66329648567,3.361573,-0.512268,-9.257285,0.044386,0.015702,0.019033,0.207083,0.897982,2.764126,782.06,41.70,highres
16.399468,66329674883,3.374408,-0.599683,-9.376204,-0.024390,0.026190,0.003884,0.207083,0.897982,2.764126,782.06,41.70,highres
16.430730,66329691628,3.361812,-0.462187,-9.142142,-0.057347,0.009070,0.009093,0.215359,0.889822,2.762744,782.05,41.70,highres
16.448661,66329711241,3.309853,-0.464291,-8.996534,-0.011788,-0.004353,0.019114,0.211219,0.889459,2.762270,782.05,41.70,highres
16.465566,66329724301,3.259408,-0.483064,-9.009789,0.003404,-0.005575,0.015491,0.211219,0.889459,2.762270,782.05,41.70,highres
16.482614,66329751712,3.327723,-0.444067,-9.087716,0.010622,-0.011484,0.016857,0.211219,0.889459,2.762270,782.05,41.70,highres
16.499498,66329774459,3.383329,-0.495199,-9.240650,0.010803,-0.008935,0.012459,0.211219,0.889459,2.762270,782.06,41.70,highres
16.520747,66329789371,3.340178,-0.475144,-9.298533,-0.001813,-0.015920,0.005074,0.211219,0.889459,2.762270,782.06,41.70,highres
16.538263,66329811594,3.277369,-0.426251,-9.268192,-0.029044,-0.024727,0.021381,0.211219,0.889459,2.762270,782.06,41.70,highres
16.566097,66329831347,3.234943,-0.454858,-9.236149,0.002085,0.003335,0.025255,0.218749,0.890978,2.760059,782.06,41.70,highres
16.581996,66329852596,3.244980,-0.481077,-9.236784,0.020462,0.038675,0.024641,0.226500,0.887179,2.758670,782.06,41.70,highres
16.607391,66329868132,3.319221,-0.484436,-9.161130,-0.015216,0.037783,0.031984,0.226500,0.887179,2.758670,782.06,41.70,highres
16.631203,66329889682,3.457543,-0.533546,-9.149264,-0.026823,-0.000701,0.031678,0.226500,0.887179,2.758670,782.06,41.70,highres
16.647056,66329904934,3.393561,-0.536240,-9.105671,-0.029090,-0.010274,0.017349,0.226500,0.887179,2.758670,782.06,41.70,highres
16.665640,66329922741,3.306535,-0.443077,-9.080684,-0.006029,-0.002397,0.005467,0.226500,0.887179,2.758670,782.05,41.70,highres
16.683018,66329947071,3.277447,-0.505116,-9.092504,0.017427,0.007240,0.018383,0.226500,0.887179,2.758670,782.05,41.70,highres
16.707099,66329974733,3.325846,-0.445943,-9.092710,0.006609,-0.017826,0.017044,0.215960,0.889365,2.761853,782.05,41.70,highres
16.732266,66329996338,3.358465,-0.494067,-9.198384,0.009634,-0.037958,0.025875,0.206690,0.892505,2.752826,782.05,41.70,highres
16.738704,66330014479,3.321065,-0.575966,-9.365656,-0.003955,-0.021241,0.015254,0.206690,0.892505,2.752826,782.05,41.70,highres
16.766251,66330031815,3.330229,-0.536071,-9.302959,-0.018965,0.010836,0.007215,0.206690,0.892505,2.752826,782.05,41.70,highres
16.781062,66330052501,3.310343,-0.494564,-9.292987,-0.002122,0.026412,-0.006070,0.206690,0.892505,2.752826,782.05,41.70,highres
16.808564,66330069231,3.288220,-0.399776,-9.206223,-0.031099,0.018541,0.006022,0.206690,0.892505,2.752826,782.05,41.70,highres
16.832274,66330089955,3.300934,-0.394931,-9.056897,-0.028551,0.006998,0.027034,0.206690,0.892505,2.752826,782.05,41.70,highres
16.847232,66330109335,3.248412,-0.457438,-8.994206,0.006978,0.006425,0.025739,0.232858,0.890765,2.756081,782.05,41.70,highres
16.865811,66330124427,3.249573,-0.487545,-9.030182,0.012703,-0.000713,0.026566,0.232858,0.890765,2.756081,782.05,41.70,highres
16.881845,66330145194,3.370837,-0.535646,-9.202558,0.005390,-0.016799,0.023410,0.232858,0.890765,2.756081,782.05,41.70,highres
16.901736,66330169304,3.416304,-0.514809,-9.366920,-0.007896,-0.011972,0.012545,0.232858,0.890765,2.756081,782.05,41.70,highres
16.919628,66330185657,3.365721,-0.512790,-9.302630,-0.008001,0.003323,0.009202,0.232858,0.890765,2.756081,782.05,41.70,highres
16.938245,66330205623,3.254604,-0.511191,-9.185495,-0.009272,0.014846,0.006216,0.232858,0.890765,2.756081,782.05,41.70,highres
16.964942,66330227667,3.203461,-0.473993,-9.053854,0.003415,0.018235,0.017323,0.232858,0.890765,2.756081,782.05,41.70,highres
16.983070,66330249363,3.310964,-0.511101,-9.143977,0.004958,0.016403,0.021290,0.214824,0.901058,2.743731,782.05,41.70,highres
16.999715,66330268893,3.463520,-0.514808,-9.154969,-0.008802,0.013654,0.019156,0.214824,0.901058,2.743731,782.05,41.70,highres
17.018111,66330285169,3.429472,-0.468008,-9.177493,-0.018275,-0.012541,0.005301,0.214824,0.901058,2.743731,782.05,41.70,highres
17.039771,66330309577,3.253265,-0.418518,-9.139854,-0.028941,-0.033615,0.005700,0.214824,0.901058,2.743731,782.05,41.70,highres
17.065692,66330334750,3.151084,-0.447955,-9.161102,0.011890,-0.003929,0.015223,0.214824,0.901058,2.743731,782.05,41.70,highres
17.081303,66330351824,3.164506,-0.497516,-9.245240,0.014097,0.022585,0.024108,0.214824,0.901058,2.743731,782.05,41.70,highres
17.098834,66330374099,3.322827,-0.439516,-9.274101,-0.000312,0.022450,0.029449,0.214824,0.901058,2.743731,782.05,41.70,highres
17.117923,66330394182,3.461534,-0.559175,-9.302026,-0.026503,0.011335,0.037412,0.203164,0.884280,2.756329,782.05,41.70,highres
17.137668,66330411746,3.439428,-0.583906,-9.244764,-0.040220,0.014630,0.009363,0.203164,0.884280,2.756329,782.06,41.70,highres
17.164484,66330434200,3.330376,-0.458119,-9.026110,-0.010597,0.029222,0.001225,0.203164,0.884280,2.756329,782.06,41.70,highres
17.182782,66330455032,3.245450,-0.452737,-8.919254,0.011990,0.014676,0.008063,0.203164,0.884280,2.756329,782.06,41.70,highres
17.199734,66330468278,3.274225,-0.424086,-8.948769,0.000055,-0.013224,0.016712,0.203164,0.884280,2.756329,782.06,41.70,highres
17.224280,66330491874,3.357649,-0.505116,-9.153554,-0.008494,-0.045395,0.022918,0.203164,0.884280,2.756329,782.05,41.70,highres
17.238065,66330507286,3.376802,-0.502722,-9.315155,0.016827,-0.030578,0.015962,0.203164,0.884280,2.756329,782.05,41.70,highres
17.265695,66330528900,3.294635,-0.516839,-9.426571,0.008913,-0.002534,0.002051,0.188817,0.902526,2.764357,782.05,41.70,highres
17.282510,66330547864,3.295795,-0.447926,-9.260608,-0.025907,0.005407,0.011214,0.188817,0.902526,2.764357,782.05,41.70,highres
17.304213,66330567696,3.261621,-0.491412,-9.262750,-0.007581,0.012432,0.020072,0.188817,0.902526,2.764357,782.06,41.70,highres
17.304213,66330592411,3.235783,-0.499484,-9.158463,-0.028580,0.041143,0.020741,0.188817,0.902526,2.764357,782.06,41.70,highres
17.345376,66330615419,3.344576,-0.445245,-9.014753,-0.013056,0.022954,0.025720,0.188817,0.902526,2.764357,782.06,41.70,highres
17.367271,66330630067,3.376653,-0.457197,-9.074473,0.001544,0.004510,0.023589,0.188817,0.902526,2.764357,782.06,41.70,highres
17.384969,66330655350,3.380460,-0.474552,-9.108000,0.005878,0.001837,0.021580,0.188817,0.902526,2.764357,782.06,41.70,highres
17.400916,66330674808,3.346344,-0.521130,-9.127645,-0.004436,-0.002689,0.013102,0.213614,0.905661,2.753689,782.06,41.70,highres
17.429717,66330692405,3.292544,-0.474261,-9.125608,-0.012162,-0.013931,0.012832,0.213614,0.905661,2.753689,782.06,41.70,highres
17.438568,66330712117,3.301388,-0.476387,-9.236150,-0.002388,-0.013224,0.021294,0.213614,0.905661,2.753689,782.06,41.70,highres
17.469689,66330731998,3.364090,-0.543936,-9.256103,0.010367,0.006484,0.020857,0.213614,0.905661,2.753689,782.06,41.70,highres
17.483085,66330750811,3.314700,-0.546164,-9.223126,0.009160,0.014081,0.005809,0.213614,0.905661,2.753689,782.06,41.70,highres
17.501911,66330772243,3.309625,-0.479673,-9.226689,0.002894,0.008845,0.013646,0.213614,0.905661,2.753689,782.06,41.70,highres
17.518533,66330794897,3.323670,-0.525654,-9.279064,-0.045193,0.015439,0.013306,0.213614,0.905661,2.753689,782.06,41.70,highres
17.539934,66330812431,3.349431,-0.401447,-9.088984,-0.050159,0.024821,0.013210,0.200401,0.890556,2.752275,782.06,41.70,highres
17.564488,66330834769,3.381282,-0.447200,-8.984963,0.013524,0.017439,0.015781,0.200401,0.890556,2.752275,782.06,41.70,highres
17.582800,66330849638,3.342183,-0.528275,-8.969846,0.009013,-0.007386,-0.001654,0.200401,0.890556,2.752275,782.06,41.70,highres
17.598811,66330874765,3.269573,-0.395839,-9.035824,0.003107,-0.049699,0.007704,0.200401,0.890556,2.752275,782.06,41.70,highres
17.626061,66330893446,3.277496,-0.475968,-9.260289,0.013506,-0.040634,0.026313,0.200401,0.890556,2.752275,782.06,41.70,highres
17.637072,66330912534,3.299266,-0.492873,-9.333490,0.009285,0.002951,0.024028,0.200401,0.890556,2.752275,782.06,41.70,highres
17.665622,66330932513,3.327504,-0.482372,-9.237677,0.022667,0.027301,0.025097,0.200401,0.890556,2.752275,782.06,41.70,highres
17.681884,66330952803,3.367361,-0.582098,-9.260325,0.012792,0.019341,0.012944,0.212162,0.880043,2.752974,782.06,41.70,highres
17.704383,66330972944,3.332511,-0.501525,-9.325929,-0.061020,-0.007740,0.003578,0.212162,0.880043,2.752974,782.05,41.70,highres
17.717901,66330995446,3.332272,-0.376840,-9.205169,-0.054377,0.007774,0.019191,0.212162,0.880043,2.752974,782.05,41.70,highres
17.745274,66331013274,3.281318,-0.463858,-9.059188,-0.018634,0.042611,0.028541,0.212162,0.880043,2.752974,782.05,41.70,highres
17.765060,66331030058,3.242179,-0.473586,-8.864397,0.008038,0.041405,0.027186,0.212162,0.880043,2.752974,782.05,41.70,highres
17.784651,66331052939,3.272797,-0.466559,-8.884242,0.034702,-0.013943,0.032531,0.212162,0.880043,2.752974,782.05,41.70,highres
17.799112,66331072721,3.368423,-0.535042,-9.163131,0.014728,-0.050500,0.035954,0.212162,0.880043,2.752974,782.05,41.70,highres
17.831625,66331092660,3.439808,-0.523664,-9.391805,0.000258,-0.042671,0.026828,0.217699,0.896347,2.751014,782.05,41.70,highres
17.847250,66331112630,3.400623,-0.536898,-9.426288,-0.023301,-0.004375,0.018999,0.217699,0.896347,2.751014,782.05,41.70,highres
17.864674,66331133094,3.327499,-0.516140,-9.261364,-0.012653,0.020468,0.008822,0.217699,0.896347,2.751014,782.06,41.70,highres
17.883244,66331152898,3.227815,-0.498394,-9.128046,-0.000262,0.019185,0.003883,0.217699,0.896347,2.751014,782.06,41.70,highres
17.898965,66331172396,3.241686,-0.460582,-9.136429,-0.004758,0.017561,0.024560,0.217699,0.896347,2.751014,782.06,41.70,highres
17.931247,66331197646,3.347068,-0.470655,-9.063895,-0.013816,0.018184,0.033362,0.217699,0.896347,2.751014,782.06,41.70,highres
17.938971,66331212686,3.408727,-0.485421,-9.020545,-0.005481,-0.001791,0.027639,0.217699,0.896347,2.751014,782.06,41.70,highres
17.964260,66331235475,3.362643,-0.474145,-9.117946,0.018255,-0.023714,0.017323,0.223352,0.887087,2.751252,782.06,41.70,highres
17.983674,66331248992,3.331314,-0.501525,-9.149962,0.018698,-0.019346,0.015795,0.223352,0.887087,2.751252,782.06,41.70,highres
17.998848,66331272625,3.289912,-0.528664,-9.162511,0.019218,-0.010171,0.017469,0.223352,0.887087,2.751252,782.06,41.70,highres
18.031782,66331297903,3.260993,-0.534832,-9.237020,-0.004618,-0.027246,0.018131,0.223352,0.887087,2.751252,782.06,41.70,highres
18.038206,66331312980,3.326525,-0.525466,-9.401344,-0.028033,-0.027898,0.021598,0.223352,0.887087,2.751252,782.06,41.70,highres
18.064391,66331333106,3.386429,-0.526537,-9.387898,-0.032987,0.020321,0.020520,0.223352,0.887087,2.751252,782.06,41.70,highres
18.081479,66331353170,3.374408,-0.517087,-9.127217,-0.002377,0.066175,0.010298,0.216183,0.893067,2.762322,782.06,41.70,highres
18.099321,66331372751,3.259658,-0.454979,-8.917623,0.012490,0.038609,0.001404,0.224046,0.899950,2.746834,782.06,41.70,highres
18.124820,66331392843,3.252250,-0.458964,-8.969003,-0.024594,-0.040847,0.014375,0.224046,0.899950,2.746834,782.06,41.70,highres
18.137706,66331412831,3.310570,-0.490570,-9.235270,-0.046529,-0.055181,0.022650,0.224046,0.899950,2.746834,782.06,41.70,highres
18.167330,66331427317,3.350467,-0.438081,-9.285229,-0.019481,-0.019346,0.018544,0.224046,0.899950,2.746834,782.06,41.70,highres
18.182360,66331438150,3.364723,-0.416293,-9.281880,0.017447,0.014537,0.023040,0.224046,0.899950,2.746834,782.05,41.70,highres
18.204191,66331473757,3.326269,-0.568560,-9.070762,0.026120,0.014451,0.016051,0.224046,0.899950,2.746834,782.05,41.70,highres
18.218667,66331496944,3.283644,-0.562031,-9.213489,-0.017790,-0.033322,0.012845,0.214361,0.893460,2.758167,782.05,41.70,highres
18.237970,66331514542,3.362501,-0.505431,-9.312381,-0.054734,-0.009492,0.018930,0.212522,0.894908,2.757727,782.05,41.70,highres
18.265811,66331528524,3.390692,-0.442427,-9.185884,-0.023757,0.023415,0.018239,0.212522,0.894908,2.757727,782.05,41.70,highres
18.282599,66331548113,3.309267,-0.507895,-9.068357,0.018591,0.033528,0.014196,0.212522,0.894908,2.757727,782.05,41.70,highres
18.300084,66331566406,3.210175,-0.515641,-9.067129,0.006908,0.004992,0.010411,0.212522,0.894908,2.757727,782.05,41.70,highres
18.310582,66331588990,3.269024,-0.468541,-9.102883,-0.016427,-0.021179,0.018544,0.212522,0.894908,2.757727,782.05,41.70,highres
18.350802,66331605917,3.324895,-0.504065,-9.239708,0.002211,-0.024431,0.025165,0.212522,0.894908,2.757727,782.05,41.70,highres
18.364186,66331631179,3.374407,-0.531451,-9.364234,-0.007102,0.012311,0.022569,0.220275,0.889184,2.755503,782.05,41.70,highres
18.381502,66331654707,3.387218,-0.490776,-9.112335,-0.017675,0.030349,0.017225,0.215850,0.889748,2.760129,782.05,41.70,highres
18.403795,66331671063,3.358955,-0.526165,-9.017088,0.011696,0.007815,0.007628,0.215850,0.889748,2.760129,782.05,41.70,highres
18.432564,66331694657,3.235241,-0.515465,-9.186028,-0.012921,-0.024233,0.005005,0.215850,0.889748,2.760129,782.05,41.70,highres
18.444140,66331713623,3.301508,-0.532672,-9.216830,-0.042215,-0.004338,0.024803,0.215850,0.889748,2.760129,782.05,41.70,highres
18.466632,66331733636,3.339313,-0.470409,-9.113262,0.007889,0.025648,0.012440,0.215850,0.889748,2.760129,782.05,41.70,highres
18.487048,66331753611,3.305948,-0.430129,-9.048900,0.025239,0.003795,0.015353,0.215850,0.889748,2.760129,782.05,41.70,highres
18.498613,66331771219,3.337300,-0.537437,-9.147569,0.007284,-0.031677,0.018029,0.216388,0.889504,2.758816,782.05,41.70,highres
18.532957,66331798761,3.303292,-0.461767,-9.262585,-0.007304,-0.021039,0.005992,0.206121,0.891395,2.753948,782.05,41.70,highres
18.538044,66331808542,3.305410,-0.470407,-9.335282,0.000067,0.005699,0.016101,0.206121,0.891395,2.753948,782.05,41.70,highres
18.566370,66331828324,3.261478,-0.480506,-9.123773,-0.018409,0.036491,0.019693,0.206121,0.891395,2.753948,782.05,41.70,highres
18.587920,66331843425,3.267870,-0.424914,-9.008710,-0.016106,0.023894,0.022721,0.206121,0.891395,2.753948,782.05,41.70,highres
18.598837,66331858616,3.321145,-0.528464,-9.112901,-0.002976,-0.010502,0.034121,0.206121,0.891395,2.753948,782.05,41.70,highres
18.631801,66331886123,3.347925,-0.603277,-9.297199,0.016587,-0.013586,0.016906,0.206121,0.891395,2.753948,782.05,41.70,highres
18.638481,66331903827,3.361035,-0.551305,-9.287998,0.000799,0.007409,0.008475,0.217107,0.894769,2.758888,782.05,41.70,highres
18.664584,66331924017,3.344482,-0.501525,-9.099687,-0.028990,0.018019,0.012740,0.221221,0.885328,2.754754,782.06,41.70,highres
18.681993,66331939266,3.342087,-0.462022,-8.959632,-0.036799,0.003000,0.017532,0.221221,0.885328,2.754754,782.06,41.70,highres
18.700852,66331969755,3.281038,-0.539831,-9.120035,0.013094,-0.030979,0.014095,0.221221,0.885328,2.754754,782.06,41.70,highres
18.731807,66331981470,3.252904,-0.524864,-9.239716,0.024792,-0.023775,0.003292,0.221221,0.885328,2.754754,782.06,41.70,highres
18.742107,66331996375,3.249057,-0.443852,-9.289553,0.003261,-0.017440,-0.000218,0.221221,0.885328,2.754754,782.05,41.70,highres
18.765107,66332027346,3.289619,-0.477483,-9.310915,-0.017093,-0.016793,0.030480,0.221221,0.885328,2.754754,782.05,41.70,highres
